ACCELEROMETER X (m/s²),ACCELEROMETER Y (m/s²),ACCELEROMETER Z (m/s²),LINEAR ACCELERATION X (m/s²),LINEAR ACCELERATION Y (m/s²),LINEAR ACCELERATION Z (m/s²),Time since start in ms ,YYYY-MO-DD HH-MI-SS_SSS,,,,,,,,,,,,,,,,,,,,,,,,,,,,,
-0.958,7.286,5.582,-0.644,0.54,-0.452,13,2017-03-13 22:56:59:564,,,,,,,,,,,,,,,,,,,,,,,,,,,,,
-1.41,6.555,8.965,1.317,-0.237,-2.567,512,2017-03-13 22:57:00:063,,,,,,,,,,,,,,,,,,,,,,,,,,,,,
2.489,5.623,5.203,0.163,-2.34,-1.51,1013,2017-03-13 22:57:00:564,,,,,,,,,,,,,,,,,,,,,,,,,,,,,
0.767,0.691,14.329,1.98,-1.32,-0.546,1512,2017-03-13 22:57:01:063,,,,,,,,,,,,,,,,,,,,,,,,,,,,,
0.178,-1.374,11.479,1.543,-3.356,4.629,2013,2017-03-13 22:57:01:564,,,,,,,,,,,,,,,,,,,,,,,,,,,1.65913032,,
-1.239,0.633,1.858,2.704,-1.144,0.094,2513,2017-03-13 22:57:02:064,,,,,,,,,,,1.006223231,0.798624723,2.101948655,,,0.280157921,2.079464624,-1.100762358,,1.01248519,0.637801448,4.418188148,,,-3.3569,-0.64595,7.90095,,
-2.691,0.506,7.414,0.92,-0.138,0.735,3012,2017-03-13 22:57:02:563,,,,,,,,,,,0.989836819,0.38394537,1.78425921,,,-0.498276444,0.026420433,0.854735456,,0.979776927,0.147414048,3.183580928,,,-2.80835,-0.77995,8.39565,,
-3.999,0.161,11.57,0.316,-0.268,0.931,3513,2017-03-13 22:57:03:064,,,,,,,,,,,1.780230171,1.293441046,1.44531042,,,2.917140294,0.188965809,1.377679815,,3.16921946,1.67298974,2.08892221,,,-1.3902,-0.1134,9.2483,,
-3.279,-0.277,10.037,1.406,-0.377,-1.832,4013,2017-03-13 22:57:03:564,,,,,,,,,,,2.0571707,3.332182267,2.166045847,,,-0.289667265,-0.687853247,0.500151027,,4.231951288,11.10343866,4.69175461,,,-0.51975,3.7432,6.6493,,
-5.337,-1.286,16.829,1,-0.116,-0.713,4512,2017-03-13 22:57:04:063,,,,,,,,,,,1.628010716,2.329471322,2.576780923,,,1.255788439,0.626222968,-0.153675564,,2.65041889,5.42643664,6.639799928,,,0.5061,2.8476,7.43515,,
-2.324,-1.326,7.661,-1.124,-0.896,-0.022,5012,2017-03-13 22:57:04:563,,,,,,,,,,,0.627738449,0.493672814,0.89920273,,,0.2748437,0.031712975,-0.251091933,,0.39405556,0.243712848,0.80856555,,,-0.5582,2.08355,8.3305,,
-2.485,-0.935,8.17,0.905,-0.176,0.603,5512,2017-03-13 22:57:05:063,,,,,,,,,,,0.525328419,0.775057056,1.65843342,,,0.260474518,0.003149768,0.079402634,,0.275969948,0.60071344,2.75040141,,,-0.50605,2.3304,8.6013,,
-3.084,-1.095,8.031,-0.055,-0.383,-0.395,6013,2017-03-13 22:57:05:564,,,,,,,,,,,0.872437929,0.675123663,1.594679181,,,0.690171121,0.070009263,-0.162473859,,0.76114794,0.45579196,2.54300169,,,-0.4994,2.3618,8.2771,,
-2.654,-1.076,9.462,0.823,-0.017,-0.721,6513,2017-03-13 22:57:06:064,,,,,,,,,,,1.694561578,1.41989737,2.141953442,,,-2.177664781,0.220233112,3.535792643,,2.87153894,2.01610854,4.587964548,,,-0.4344,0.9396,8.64305,,0.796190476
-2.628,-1.302,7.363,0.246,-0.38,0.19,7013,2017-03-13 22:57:06:564,,,,,,,,,,,0.789682992,1.136192434,0.482965361,,,0.669045746,1.530113604,0.543435423,,0.623599227,1.290933248,0.23325554,,,-5.56765,0.09995,6.7206,,0.34035
-3.441,-1.912,7.04,0.448,-0.431,-0.62,7513,2017-03-13 22:57:07:064,,,,,,,,,,,1.362546113,0.915685563,0.999468404,,,0.706411234,0.994914284,-0.276274233,,1.85653191,0.83848005,0.99893709,,,-3.8873,-0.0795,7.6401,,
-3.006,-1.715,7.455,0.71,-0.012,0.549,8013,2017-03-13 22:57:07:564,,,,,,,,,,,0.905075433,1.276543163,1.199978058,,,-0.027934497,0.775319326,1.141671292,,2224963953,2523683987,2907336903,,,-5.0734,0.15445,7.0544,,
-2.632,-1.085,8.151,0.685,-0.193,0.496,8513,2017-03-13 22:57:08:064,,,,,,,,,,,0.564984256,0.429337164,0.718662675,,,-0.026708536,1.414380716,-2.794883455,,0.31920721,0.1843304,0.51647604,,,-4.5977,-0.375,7.3016,,
-2.287,-0.975,8.095,0.749,-0.198,-0.384,9012,2017-03-13 22:57:08:563,,,,,,,,,,,0.360112566,0.330655954,0.550795087,,,-0.159825618,-0.537560813,-0.109739349,,0.12968106,0.10933336,0.303375228,,,-4.1432,-0.4482,7.71565,,
-2.14,-0.66,6.487,1.14,0.169,0.623,9513,2017-03-13 22:57:09:064,,,,,,,,,,,0.42335747,0.302345316,0.774957167,,,0.325237559,0.448292309,-0.281292149,,0.179231548,0.09141269,0.60055861,,,-4.29905,-0.3791,7.7383,,
-2.673,-1.629,8.287,1.488,0.269,-1.105,10012,2017-03-13 22:57:09:563,,,,,,,,,,,0.933216288,0.487397425,1.100411905,,,0.400951053,0.27832935,-0.284633452,,0.87089264,0.23755625,1.21090636,,,-4.3166,-0.8705,8.1018,,
-2.173,-0.567,7.565,0.271,-0.177,0.437,10512,2017-03-13 22:57:10:063,,,,,,,,,,,0.840144302,0.574191301,1.19462155,,,0.379399393,0.274182392,-0.405696408,,0.705842448,0.32969565,1.427120648,,,-4.15505,-0.7195,8.09545,,
-2.125,-0.31,9.391,1.328,0.279,1.128,11012,2017-03-13 22:57:10:563,,,,,,,,,,,0.576212068,0.667749878,0.773769404,,,0.30317641,0.349094813,-0.47649986,,0.332020347,0.4458899,0.59871909,,,-4.09045,-0.134,7.7071,,
-1.906,-0.455,11.604,1.944,0.179,0.421,11513,2017-03-13 22:57:11:064,,,,,,,,,,,0.512330682,0.52617327,1.602123354,,,0.268734634,0.439243151,-0.392807898,,0.262482727,0.27685831,2.56679924,,,-3.92685,-0.0913,7.9116,,
-1.72,-0.008,9.492,0.956,0.357,-0.862,12013,2017-03-13 22:57:11:564,,,,,,,,,,,1.196151825,0.724390716,1.776078052,,,0.104103204,0.460992257,-0.585331723,,1.430779188,0.52474191,3.154453247,,,-4.20875,-0.8463,7.38955,,
-0.89,-0.261,11.02,1.345,0.43,-0.296,12513,2017-03-13 22:57:12:064,,,,,,,,,,,0.402045678,0.447338194,0.663840981,,,-0.993125773,0.375587645,1.087701443,,0.161640728,0.20011146,0.440684848,,,-4.42935,-0.2448,7.27445,,
-2.567,-0.527,8.506,0.428,0.257,-0.147,13014,2017-03-13 22:57:12:565,,,,,,,,,,,0.984466275,0.446487357,1.020491573,,,-1.185635967,0.382960259,1.00300657,,0.969173847,0.19935096,1.04140305,,,-4.23905,-0.3642,7.2995,,
-2.249,-1.215,7.641,0.365,-0.082,0.376,13513,2017-03-13 22:57:13:064,,,,,,,,,,,0.680540917,0.382212258,0.811309737,,,-1.330787115,-0.452238538,1.059411598,,0.46313594,0.14608621,0.65822349,,,-4.5564,-0.4287,7.5589,,
-0.604,-2.173,7.305,1.085,-0.393,1.022,14012,2017-03-13 22:57:13:563,,,,,,,,,,,0.518691826,0.50001779,1.009805886,,,-1.497747256,-0.648047807,1.201434314,,0.26904121,0.25001779,1.019707928,,,-4.1937,-0.3319,7.50835,,
-2.177,-1.196,8.749,0.41,-0.217,-0.465,14513,2017-03-13 22:57:14:064,,,,,,,,,,,,,,,,,,,,,,,,,,,,,
-1.221,-1.008,5.952,0.833,0.123,-0.113,15012,2017-03-13 22:57:14:563,,,,,,,,,,,,,,,,,,,,,,,,,,,,,
-3.134,-1.635,7.608,0.417,-0.334,0.024,15513,2017-03-13 22:57:15:064,,,,,,,,,,,0.528222063,0.604421233,0.563988499,,,1.19464055,-0.056428085,-0.282654732,,0.279018548,0.365325028,0.318083028,,,-4.38695,-0.59735,7.56415,,
-0.806,-1.777,11.339,1.785,-0.992,-0.921,16013,2017-03-13 22:57:15:564,,,,,,,,,,,0.545186654,0.469958307,0.587451826,,,0.956930058,0.02783996,-0.361355538,,0.297228488,0.22086081,0.345099648,,,-3.68125,-0.5457,7.28445,,
-1.457,-2.155,8.996,1.109,-1.487,0.603,16512,2017-03-13 22:57:16:063,,,,,,,,,,,1.643373466,1.192776421,1.094401713,,,0.764297727,0.042807801,-0.383218499,,2.700676348,1.42271559,1.19771511,,,-3.31945,0.4859,8.0733,,
-3.48,-1.848,7.59,-1.587,0.322,-0.552,17012,2017-03-13 22:57:16:563,,,,,,,,,,,0.665765159,0.473585291,0.937244945,,,0.761406466,0.061483336,-0.386808878,,0.443243248,0.224283028,0.878428087,,,-5.12205,-0.64385,7.52625,,
-4.447,-0.679,6.392,-2.286,0.097,-0.523,17512,2017-03-13 22:57:17:063,,,,,,,,,,,0.935734357,0.533538684,1.875120439,,,0.872703173,0.067306434,-0.231815134,,0.875598787,0.284663528,3.51607666,,,-4.28525,-0.54635,7.9892,,
-5.155,-0.119,8.128,-1.314,0.608,-0.291,18012,2017-03-13 22:57:17:563,,,,,,,,,,,0.412439038,0.47172338,1.119528663,,,0.878352522,0.116289139,-0.194248966,,0.17010596,0.222522948,1.253344427,,,-3.9522,-0.34455,7.69365,,
-2.764,0.351,7.893,0.572,0.385,-0.228,18512,2017-03-13 22:57:18:063,,,,,,,,,,,0.35178465,0.356504344,0.470667887,,,0.856959782,0.228722829,-0.330651652,,0.12375244,0.127095348,0.22152826,,,-3.9574,-0.39295,7.4238,,
-2.304,-1.619,7.357,-0.471,-0.296,0.371,19012,2017-03-13 22:57:18:563,,,,,,,,,,,1.043065242,0.386723209,0.843949837,,,0.638511623,0.228978697,-0.122393348,,1.0879851,0.14955484,0.712251327,,,-3.414,-0.2066,7.95915,,
-4.284,-0.839,8.798,0.065,0.082,-0.589,19513,2017-03-13 22:57:19:064,,,,,,,,,,,1.565320839,1.059731347,1.181031476,,,0.723899755,-0.707819381,-0.231918409,,2.450229327,1.123030528,1.394835348,,,-4.19915,0.60365,7.10395,,
-3.893,-0.511,7.808,-0.448,-0.685,-0.666,20012,2017-03-13 22:57:19:563,,,,,,,,,,,0.719997102,0.700420265,0.88614768,,,0.723226868,-0.724139988,-0.310444766,,0.518395828,0.490588548,0.78525771,,,-4.56335,-0.27545,8.0223,,
-4.479,-0.265,7.779,-0.745,-0.392,0.507,20513,2017-03-13 22:57:20:064,,,,,,,,,,,,,,,,,,,,,,,,,,,,,
-4.224,-1.562,8.607,0.09,-0.261,-0.826,21012,2017-03-13 22:57:20:563,,,,,,,,,,,,,,,,,,,,,,,,,,,,,
-3.277,-0.75,7.973,-0.119,-0.019,0.805,21513,2017-03-13 22:57:21:064,,,,,,,,,,,,,,,,,,,,,,,,,,,,,
-3.611,-1.088,8.339,1.052,-0.215,-0.144,22013,2017-03-13 22:57:21:564,,,,,,,,,,,,,,,,,,,,,,,,,,,,,
-3.502,-0.684,7.882,0.12,-0.312,0.303,22513,2017-03-13 22:57:22:064,,,,,,,,,,,,,,,,,,,,,,,,,,,,,
-2.375,-1.054,6.477,0.399,-0.107,1.371,23012,2017-03-13 22:57:22:563,,,,,,,,,,,,,,,,,,,,,,,,,,,,,
-1.168,-0.48,2.942,0.142,-1.014,0.613,23513,2017-03-13 22:57:23:064,,,,,,,,,,,,,,,,,,,,,,,,,,,,,
-4.445,-0.031,9.016,0.167,-0.732,3.7,24012,2017-03-13 22:57:23:563,,,,,,,,,,,,,,,,,,,,,,,,,,,,,
-2.687,2.117,10.723,0.705,-0.26,-0.966,24512,2017-03-13 22:57:24:063,,,,,,,,,,,,,,,,,,,,,,,,,,,,,
-2.383,-0.648,7.626,1.029,-0.428,-0.76,25013,2017-03-13 22:57:24:564,,,,,,,,,,,,,,,,,,,,,,,,,,,,,
-4.399,-1.093,6.47,-0.725,-0.053,0.82,25513,2017-03-13 22:57:25:064,,,,,,,,,,,,,,,,,,,,,,,,,,,,,
-4.85,-1.149,10.474,0.929,-0.146,-3.497,26013,2017-03-13 22:57:25:564,,,,,,,,,,,,,,,,,,,,,,,,,,,,,
-2.505,-0.448,6.932,0.896,-0.031,-0.747,26512,2017-03-13 22:57:26:063,,,,,,,,,,,,,,,,,,,,,,,,,,,,,
-2.298,-1.331,7.663,0.771,0.125,-1.38,27013,2017-03-13 22:57:26:564,,,,,,,,,,,,,,,,,,,,,,,,,,,,,
-4.356,-1.391,8.493,-0.325,-0.325,1.427,27512,2017-03-13 22:57:27:063,,,,,,,,,,,,,,,,,,,,,,,,,,,,,
-2.458,-0.234,10.802,0.888,-0.171,0.135,28012,2017-03-13 22:57:27:563,,,,,,,,,,,,,,,,,,,,,,,,,,,,,
-4.602,-1.04,10.102,0.804,0.416,0.458,28513,2017-03-13 22:57:28:064,,,,,,,,,,,,,,,,,,,,,,,,,,,,,
-2.359,0.227,9.188,0.537,-0.544,-1.018,29012,2017-03-13 22:57:28:563,,,,,,,,,,,,,,,,,,,,,,,,,,,,,
-3.267,-1.504,2.723,-0.594,-0.487,-0.616,29512,2017-03-13 22:57:29:063,,,,,,,,,,,,,,,,,,,,,,,,,,,,,
-5.682,-1.435,10.933,0.251,0.109,-0.673,30013,2017-03-13 22:57:29:564,,,,,,,,,,,,,,,,,,,,,,,,,,,,,
-3.428,-0.874,7.805,0.504,-0.207,0.755,30513,2017-03-13 22:57:30:064,,,,,,,,,,,,,,,,,,,,,,,,,,,,,
-2.791,-0.807,6.127,1.288,-0.007,-0.683,31013,2017-03-13 22:57:30:564,,,,,,,,,,,,,,,,,,,,,,,,,,,,,
-2.262,-0.7,8.121,1.009,0.041,0.832,31512,2017-03-13 22:57:31:063,,,,,,,,,,,,,,,,,,,,,,,,,,,,,
-1.793,-0.932,7.927,0.965,-0.757,0.626,32012,2017-03-13 22:57:31:563,,,,,,,,,,,,,,,,,,,,,,,,,,,,,
-3.698,-1.619,7.504,1.766,0.044,-0.275,32513,2017-03-13 22:57:32:064,,,,,,,,,,,,,,,,,,,,,,,,,,,,,
-3.788,-0.721,7.622,0.524,-0.773,-0.122,33013,2017-03-13 22:57:32:564,,,,,,,,,,,,,,,,,,,,,,,,,,,,,
-0.399,-0.601,11.617,0.775,-0.116,-0.043,33512,2017-03-13 22:57:33:063,,,,,,,,,,,,,,,,,,,,,,,,,,,,,
-1.706,-0.682,9.254,0.602,-0.14,0.825,34012,2017-03-13 22:57:33:563,,,,,,,,,,,,,,,,,,,,,,,,,,,,,
-2.198,-0.712,7.513,0.943,0.15,-0.198,34512,2017-03-13 22:57:34:063,,,,,,,,,,,,,,,,,,,,,,,,,,,,,
-2.618,-0.359,7.779,0.468,0.44,0.262,35012,2017-03-13 22:57:34:563,,,,,,,,,,,,,,,,,,,,,,,,,,,,,
-2.573,-0.762,7.733,0.459,0.389,-1.565,35513,2017-03-13 22:57:35:064,,,,,,,,,,,,,,,,,,,,,,,,,,,,,
-3.168,-0.914,7.212,0.255,-0.186,-0.544,36012,2017-03-13 22:57:35:563,,,,,,,,,,,,,,,,,,,,,,,,,,,,,
-3.096,-0.435,8.176,0.052,-0.156,-0.129,36513,2017-03-13 22:57:36:064,,,,,,,,,,,,,,,,,,,,,,,,,,,,,
-2.643,0.156,12.669,0.458,-0.065,-0.506,37013,2017-03-13 22:57:36:564,,,,,,,,,,,,,,,,,,,,,,,,,,,,,
-2.778,-1.014,9.611,1.307,0.122,-1.211,37514,2017-03-13 22:57:37:065,,,,,,,,,,,,,,,,,,,,,,,,,,,,,
-2.864,-0.538,5.902,-0.006,-0.3,-0.207,38012,2017-03-13 22:57:37:563,,,,,,,,,,,,,,,,,,,,,,,,,,,,,
-2.634,-1.057,5.885,-0.732,-1.301,0.897,38512,2017-03-13 22:57:38:063,,,,,,,,,,,,,,,,,,,,,,,,,,,,,
-3.128,-1.212,10.293,0.162,-0.599,0.39,39013,2017-03-13 22:57:38:564,,,,,,,,,,,,,,,,,,,,,,,,,,,,,
-2.92,-0.381,8.23,0.221,-0.084,0.545,39512,2017-03-13 22:57:39:063,,,,,,,,,,,,,,,,,,,,,,,,,,,,,
-1.652,-0.723,7.75,0.496,0.061,0.4,40012,2017-03-13 22:57:39:563,,,,,,,,,,,,,,,,,,,,,,,,,,,,,
-3.45,-1.241,8.423,0.194,-0.533,-0.24,40513,2017-03-13 22:57:40:064,,,,,,,,,,,,,,,,,,,,,,,,,,,,,
-2.98,-1.083,10.781,1.215,0.091,-1.142,41012,2017-03-13 22:57:40:563,,,,,,,,,,,,,,,,,,,,,,,,,,,,,
-3.524,-1.693,10.981,0.867,0.293,1.211,41513,2017-03-13 22:57:41:064,,,,,,,,,,,,,,,,,,,,,,,,,,,,,
-2.127,-0.291,7.677,0.686,-0.045,-1.351,42012,2017-03-13 22:57:41:563,,,,,,,,,,,,,,,,,,,,,,,,,,,,,
-1.772,-1.016,7.534,-0.126,-0.161,0.726,42513,2017-03-13 22:57:42:064,,,,,,,,,,,,,,,,,,,,,,,,,,,,,
5.493,-2.156,13.707,-2.919,-4.015,-0.82,43013,2017-03-13 22:57:42:564,,,,,,,,,,,,,,,,,,,,,,,,,,,,,
-0.562,1.024,7.448,0.227,-0.313,0.297,43519,2017-03-13 22:57:43:070,,,,,,,,,,,,,,,,,,,,,,,,,,,,,
-0.271,0.914,9.657,1.847,-0.865,-0.034,44012,2017-03-13 22:57:43:563,,,,,,,,,,,,,,,,,,,,,,,,,,,,,
-1.519,1.166,9.62,0.547,0.053,0.94,44512,2017-03-13 22:57:44:063,,,,,,,,,,,,,,,,,,,,,,,,,,,,,
-2.29,1.513,8.278,0.846,-0.645,-0.076,45013,2017-03-13 22:57:44:564,,,,,,,,,,,,,,,,,,,,,,,,,,,,,
-2.095,2.043,9.391,-0.183,-0.214,0.77,45513,2017-03-13 22:57:45:064,,,,,,,,,,,,,,,,,,,,,,,,,,,,,
-1.591,1.739,8.084,0.568,-0.174,-0.806,46012,2017-03-13 22:57:45:563,,,,,,,,,,,,,,,,,,,,,,,,,,,,,
-1.364,1.602,8.433,0.488,0.056,-0.166,46512,2017-03-13 22:57:46:063,,,,,,,,,,,,,,,,,,,,,,,,,,,,,
-1.069,0.233,9.418,-0.526,0.171,-0.199,47013,2017-03-13 22:57:46:564,,,,,,,,,,,,,,,,,,,,,,,,,,,,,
-1.213,0.415,9.434,0.194,-0.29,0.951,47512,2017-03-13 22:57:47:063,,,,,,,,,,,,,,,,,,,,,,,,,,,,,
-1.602,-0.581,9.489,0.196,-0.157,-0.817,48012,2017-03-13 22:57:47:563,,,,,,,,,,,,,,,,,,,,,,,,,,,,,
-1.19,-1.467,8.746,0.642,-0.056,-1.016,48513,2017-03-13 22:57:48:064,,,,,,,,,,,,,,,,,,,,,,,,,,,,,
-1.081,-1.709,10.029,0.986,-0.624,0.024,49013,2017-03-13 22:57:48:564,,,,,,,,,,,,,,,,,,,,,,,,,,,,,
-1.945,-0.957,10.086,0.574,-0.013,0.264,49513,2017-03-13 22:57:49:064,,,,,,,,,,,,,,,,,,,,,,,,,,,,,
-1.377,-1.23,8.229,0.851,-0.315,-1.427,50012,2017-03-13 22:57:49:563,,,,,,,,,,,,,,,,,,,,,,,,,,,,,
-1.335,-1.772,8.907,0.691,-0.342,-0.242,50512,2017-03-13 22:57:50:063,,,,,,,,,,,,,,,,,,,,,,,,,,,,,
-1.987,-1.574,9.222,0.493,-0.173,0.329,51012,2017-03-13 22:57:50:563,,,,,,,,,,,,,,,,,,,,,,,,,,,,,
-1.052,-1.553,8.101,0.454,-0.272,-0.165,51512,2017-03-13 22:57:51:063,,,,,,,,,,,,,,,,,,,,,,,,,,,,,
-1.973,0.311,10.246,-0.024,-0.464,0.064,52012,2017-03-13 22:57:51:563,,,,,,,,,,,,,,,,,,,,,,,,,,,,,
-1.707,-0.331,11.554,-0.292,0.108,-0.066,52512,2017-03-13 22:57:52:063,,,,,,,,,,,,,,,,,,,,,,,,,,,,,
-4.306,2.608,4.552,6.043,-2.223,-4.892,53012,2017-03-13 22:57:52:563,,,,,,,,,,,,,,,,,,,,,,,,,,,,,
-5.036,3.46,3.609,1.902,1.232,0.04,53512,2017-03-13 22:57:53:063,,,,,,,,,,,,,,,,,,,,,,,,,,,,,
-1.029,5.108,5.441,-0.074,0.211,-1.557,54013,2017-03-13 22:57:53:564,,,,,,,,,,,,,,,,,,,,,,,,,,,,,
2.163,6.792,6.411,1.14,0.188,-0.58,54512,2017-03-13 22:57:54:063,,,,,,,,,,,,,,,,,,,,,,,,,,,,,
3.067,7.367,4.431,0.936,0.504,-0.314,55013,2017-03-13 22:57:54:564,,,,,,,,,,,,,,,,,,,,,,,,,,,,,
2.312,5.873,6.394,0.815,0.516,-0.654,55513,2017-03-13 22:57:55:064,,,,,,,,,,,,,,,,,,,,,,,,,,,,,
-1.706,4.946,7.515,2.342,-0.23,-0.783,56012,2017-03-13 22:57:55:563,,,,,,,,,,,,,,,,,,,,,,,,,,,,,
-0.104,6.266,6.74,0.332,0.268,-1.271,56512,2017-03-13 22:57:56:063,,,,,,,,,,,,,,,,,,,,,,,,,,,,,
-1.095,6.136,5.722,0.979,0.165,-1.75,57012,2017-03-13 22:57:56:563,,,,,,,,,,,,,,,,,,,,,,,,,,,,,
1.862,5.858,5.807,0.622,-0.042,0.034,57512,2017-03-13 22:57:57:063,,,,,,,,,,,,,,,,,,,,,,,,,,,,,
0.939,6.919,5.877,0.32,-0.147,-0.323,58012,2017-03-13 22:57:57:563,,,,,,,,,,,,,,,,,,,,,,,,,,,,,
0.4,6.712,3.134,0.326,-0.045,-0.662,58512,2017-03-13 22:57:58:063,,,,,,,,,,,,,,,,,,,,,,,,,,,,,
0.431,6.272,6.702,-0.048,0.424,0.951,59012,2017-03-13 22:57:58:563,,,,,,,,,,,,,,,,,,,,,,,,,,,,,
1.138,6.696,4.392,-0.152,0.436,0.895,59512,2017-03-13 22:57:59:063,,,,,,,,,,,,,,,,,,,,,,,,,,,,,
0.718,6.545,6.193,0.71,0.417,1.186,60013,2017-03-13 22:57:59:564,,,,,,,,,,,,,,,,,,,,,,,,,,,,,
0.716,6.115,6.17,0.341,-0.188,0.43,60512,2017-03-13 22:58:00:063,,,,,,,,,,,,,,,,,,,,,,,,,,,,,
0.204,6.447,5.989,0.319,0.426,1.101,61012,2017-03-13 22:58:00:563,,,,,,,,,,,,,,,,,,,,,,,,,,,,,
1.639,5.581,6.219,1.027,0.064,-0.62,61512,2017-03-13 22:58:01:063,,,,,,,,,,,,,,,,,,,,,,,,,,,,,
1.057,1.772,8.516,-0.195,-0.026,-0.047,62012,2017-03-13 22:58:01:563,,,,,,,,,,,,,,,,,,,,,,,,,,,,,
4.056,0.81,14.451,1.74,-0.853,6.369,62512,2017-03-13 22:58:02:063,,,,,,,,,,,,,,,,,,,,,,,,,,,,,
4.976,-0.478,9.13,1.662,-1.371,-0.603,63013,2017-03-13 22:58:02:564,,,,,,,,,,,,,,,,,,,,,,,,,,,,,
-0.666,0.374,8.823,0.921,-0.704,0.321,63512,2017-03-13 22:58:03:063,,,,,,,,,,,,,,,,,,,,,,,,,,,,,
-1.349,0.576,8.18,0.246,-0.29,0.59,64012,2017-03-13 22:58:03:563,,,,,,,,,,,,,,,,,,,,,,,,,,,,,
-2.381,0.469,7.244,0.56,-0.84,0.012,64512,2017-03-13 22:58:04:063,,,,,,,,,,,,,,,,,,,,,,,,,,,,,
0.757,7.076,0.266,1.083,-2.076,-3.198,65012,2017-03-13 22:58:04:563,,,,,,,,,,,,,,,,,,,,,,,,,,,,,
1.4,5.23,4.256,1.147,-1.558,-3.076,65512,2017-03-13 22:58:05:063,,,,,,,,,,,,,,,,,,,,,,,,,,,,,
-0.405,1.413,6.061,0.773,1.635,4.042,66012,2017-03-13 22:58:05:563,,,,,,,,,,,,,,,,,,,,,,,,,,,,,
-0.332,2.17,7.548,0.43,-0.976,0.032,66513,2017-03-13 22:58:06:064,,,,,,,,,,,,,,,,,,,,,,,,,,,,,
-0.257,2.186,8.847,0.761,-0.39,-0.248,67013,2017-03-13 22:58:06:564,,,,,,,,,,,,,,,,,,,,,,,,,,,,,
-0.203,1.288,7.798,0.754,-0.035,0.269,67513,2017-03-13 22:58:07:064,,,,,,,,,,,,,,,,,,,,,,,,,,,,,
0.439,2.613,8.939,1.017,0.325,0.392,68012,2017-03-13 22:58:07:563,,,,,,,,,,,,,,,,,,,,,,,,,,,,,
-0.682,2.122,8.67,0.433,-0.21,-0.406,68512,2017-03-13 22:58:08:063,,,,,,,,,,,,,,,,,,,,,,,,,,,,,
-0.255,2.753,8.351,0.309,-0.103,0.282,69012,2017-03-13 22:58:08:563,,,,,,,,,,,,,,,,,,,,,,,,,,,,,
0.69,1.89,7.052,-0.058,-0.719,-1.348,69512,2017-03-13 22:58:09:063,,,,,,,,,,,,,,,,,,,,,,,,,,,,,
-0.626,3.132,9.021,-0.258,0.114,0.287,70012,2017-03-13 22:58:09:563,,,,,,,,,,,,,,,,,,,,,,,,,,,,,
-0.993,1.699,7.682,-0.006,-0.366,0.135,70513,2017-03-13 22:58:10:064,,,,,,,,,,,,,,,,,,,,,,,,,,,,,
0.517,1.295,6.684,0.353,0.067,0.216,71013,2017-03-13 22:58:10:564,,,,,,,,,,,,,,,,,,,,,,,,,,,,,
0.098,2.54,8.281,0.48,-0.037,0.473,71513,2017-03-13 22:58:11:064,,,,,,,,,,,,,,,,,,,,,,,,,,,,,
-0.22,1.311,9.011,0.63,-0.098,-0.422,72013,2017-03-13 22:58:11:564,,,,,,,,,,,,,,,,,,,,,,,,,,,,,
-1.294,2.184,6.713,0.41,-0.161,1.229,72513,2017-03-13 22:58:12:064,,,,,,,,,,,,,,,,,,,,,,,,,,,,,
0.698,1.599,9.175,0.643,-0.945,-0.028,73012,2017-03-13 22:58:12:563,,,,,,,,,,,,,,,,,,,,,,,,,,,,,
-0.839,1.909,9.389,0.776,-0.403,0.271,73512,2017-03-13 22:58:13:063,,,,,,,,,,,,,,,,,,,,,,,,,,,,,
-0.328,2.191,7.72,0.318,0.147,1.944,74012,2017-03-13 22:58:13:563,,,,,,,,,,,,,,,,,,,,,,,,,,,,,
-0.859,1.484,9.215,0.44,0.089,0.555,74512,2017-03-13 22:58:14:063,,,,,,,,,,,,,,,,,,,,,,,,,,,,,
-0.288,2.535,7.361,0.412,0.31,-0.675,75012,2017-03-13 22:58:14:563,,,,,,,,,,,,,,,,,,,,,,,,,,,,,
-0.689,2.285,8.207,0.888,0.335,0.791,75512,2017-03-13 22:58:15:063,,,,,,,,,,,,,,,,,,,,,,,,,,,,,
0.327,1.708,7.812,1.082,0.246,0.053,76012,2017-03-13 22:58:15:563,,,,,,,,,,,,,,,,,,,,,,,,,,,,,
-0.365,1.463,8.956,0.925,-0.574,0.289,76513,2017-03-13 22:58:16:064,,,,,,,,,,,,,,,,,,,,,,,,,,,,,
-0.244,2.049,9.915,0.884,0.597,0.352,77013,2017-03-13 22:58:16:564,,,,,,,,,,,,,,,,,,,,,,,,,,,,,
-1.79,2.311,8.604,0.29,0.464,0.001,77513,2017-03-13 22:58:17:064,,,,,,,,,,,,,,,,,,,,,,,,,,,,,
-0.943,2.497,7.978,0.377,0.349,0.708,78013,2017-03-13 22:58:17:564,,,,,,,,,,,,,,,,,,,,,,,,,,,,,
-1.156,2.644,8.363,0.136,0.018,0.578,78513,2017-03-13 22:58:18:064,,,,,,,,,,,,,,,,,,,,,,,,,,,,,
-1.254,2.312,7.223,0.226,-0.213,-0.062,79012,2017-03-13 22:58:18:563,,,,,,,,,,,,,,,,,,,,,,,,,,,,,
-0.916,2.523,9.3,0.605,0.229,-0.034,79512,2017-03-13 22:58:19:063,,,,,,,,,,,,,,,,,,,,,,,,,,,,,
0.174,2.625,9.233,0.486,0.036,0.486,80012,2017-03-13 22:58:19:563,,,,,,,,,,,,,,,,,,,,,,,,,,,,,
-0.628,2.122,5.859,0.668,0.599,1.56,80512,2017-03-13 22:58:20:063,,,,,,,,,,,,,,,,,,,,,,,,,,,,,
-0.825,3.865,13.052,0.475,0.165,1.238,81012,2017-03-13 22:58:20:563,,,,,,,,,,,,,,,,,,,,,,,,,,,,,
0.428,3.413,8.944,0.805,0.07,0.578,81514,2017-03-13 22:58:21:065,,,,,,,,,,,,,,,,,,,,,,,,,,,,,
-0.489,1.651,8.754,0.133,-0.227,0.528,82012,2017-03-13 22:58:21:563,,,,,,,,,,,,,,,,,,,,,,,,,,,,,
-0.572,1.903,8.838,0.745,-0.297,-0.124,82512,2017-03-13 22:58:22:063,,,,,,,,,,,,,,,,,,,,,,,,,,,,,
0.23,2.465,9.283,0.623,-0.216,0.297,83012,2017-03-13 22:58:22:563,,,,,,,,,,,,,,,,,,,,,,,,,,,,,
-0.986,2.201,8.098,0.554,-0.391,-0.267,83512,2017-03-13 22:58:23:063,,,,,,,,,,,,,,,,,,,,,,,,,,,,,
0.207,3.796,10.632,0.613,-0.762,0.176,84012,2017-03-13 22:58:23:563,,,,,,,,,,,,,,,,,,,,,,,,,,,,,
-1.254,1.944,7.046,0.275,-0.633,-0.222,84512,2017-03-13 22:58:24:063,,,,,,,,,,,,,,,,,,,,,,,,,,,,,
-1.353,0.398,8.155,0.657,-0.307,0.636,85012,2017-03-13 22:58:24:563,,,,,,,,,,,,,,,,,,,,,,,,,,,,,
-0.19,2.026,4.556,0.632,-0.105,0.037,85512,2017-03-13 22:58:25:063,,,,,,,,,,,,,,,,,,,,,,,,,,,,,
0.134,2.359,8.776,0.687,0.022,0.029,86013,2017-03-13 22:58:25:564,,,,,,,,,,,,,,,,,,,,,,,,,,,,,
-0.874,1.557,9.306,0.561,0.03,-0.029,86512,2017-03-13 22:58:26:063,,,,,,,,,,,,,,,,,,,,,,,,,,,,,
-0.81,2.026,8.423,0.777,0.435,0.223,87013,2017-03-13 22:58:26:564,,,,,,,,,,,,,,,,,,,,,,,,,,,,,
-1.024,2.972,9.233,0.135,0.101,0.149,87513,2017-03-13 22:58:27:064,,,,,,,,,,,,,,,,,,,,,,,,,,,,,
-0.243,1.795,7.808,0.7,0.254,0.533,88013,2017-03-13 22:58:27:564,,,,,,,,,,,,,,,,,,,,,,,,,,,,,
-0.209,2.291,8.738,0.425,-0.361,0.196,88512,2017-03-13 22:58:28:063,,,,,,,,,,,,,,,,,,,,,,,,,,,,,
-0.882,2.693,7.738,0.383,-0.11,0.676,89012,2017-03-13 22:58:28:563,,,,,,,,,,,,,,,,,,,,,,,,,,,,,
-0.955,2.506,9.554,-0.02,-0.002,1.33,89513,2017-03-13 22:58:29:064,,,,,,,,,,,,,,,,,,,,,,,,,,,,,
-0.74,3.797,9.414,-0.095,-0.095,1.281,90013,2017-03-13 22:58:29:564,,,,,,,,,,,,,,,,,,,,,,,,,,,,,
-0.77,2.037,9.079,0.223,0.066,1.283,90512,2017-03-13 22:58:30:063,,,,,,,,,,,,,,,,,,,,,,,,,,,,,
-0.433,1.982,8.46,1.055,0.002,0.584,91013,2017-03-13 22:58:30:564,,,,,,,,,,,,,,,,,,,,,,,,,,,,,
-0.982,1.533,6.932,0.587,-0.09,1.12,91512,2017-03-13 22:58:31:063,,,,,,,,,,,,,,,,,,,,,,,,,,,,,
0.625,2.999,8.753,0.511,-0.53,-0.161,92012,2017-03-13 22:58:31:563,,,,,,,,,,,,,,,,,,,,,,,,,,,,,
-1.235,1.828,6.712,1.178,-0.998,-1.291,92512,2017-03-13 22:58:32:063,,,,,,,,,,,,,,,,,,,,,,,,,,,,,
-1.269,2.321,10.824,-0.084,0.225,0.746,93012,2017-03-13 22:58:32:563,,,,,,,,,,,,,,,,,,,,,,,,,,,,,
-1.432,2.733,8.779,0.036,-0.592,-0.361,93513,2017-03-13 22:58:33:064,,,,,,,,,,,,,,,,,,,,,,,,,,,,,
-0.188,2.286,8.445,0.299,-0.175,0.14,94013,2017-03-13 22:58:33:564,,,,,,,,,,,,,,,,,,,,,,,,,,,,,
-0.627,2.845,9.627,0.791,-0.511,-1.741,94513,2017-03-13 22:58:34:064,,,,,,,,,,,,,,,,,,,,,,,,,,,,,
-0.543,2.632,6.053,0.376,-0.45,-0.875,95013,2017-03-13 22:58:34:564,,,,,,,,,,,,,,,,,,,,,,,,,,,,,
-1.546,1.024,6.276,-0.091,0.07,0.901,95512,2017-03-13 22:58:35:063,,,,,,,,,,,,,,,,,,,,,,,,,,,,,
-1.511,1.636,7.236,0.818,-0.461,-1.21,96012,2017-03-13 22:58:35:563,,,,,,,,,,,,,,,,,,,,,,,,,,,,,
1.216,2.309,7.771,0.44,-0.228,-0.127,96513,2017-03-13 22:58:36:064,,,,,,,,,,,,,,,,,,,,,,,,,,,,,
0.75,1.413,8.156,1.094,0.086,0.16,97013,2017-03-13 22:58:36:564,,,,,,,,,,,,,,,,,,,,,,,,,,,,,
1.283,2.809,9.487,1.158,0.357,-0.809,97513,2017-03-13 22:58:37:064,,,,,,,,,,,,,,,,,,,,,,,,,,,,,
-0.147,2.23,4.973,0.878,0.291,0.05,98012,2017-03-13 22:58:37:563,,,,,,,,,,,,,,,,,,,,,,,,,,,,,
-1.7,2.345,7.146,-0.017,-0.043,0.454,98512,2017-03-13 22:58:38:063,,,,,,,,,,,,,,,,,,,,,,,,,,,,,
-0.561,3.273,10.803,0.749,0.443,0.555,99013,2017-03-13 22:58:38:564,,,,,,,,,,,,,,,,,,,,,,,,,,,,,
-0.178,3.204,10.616,0.419,-0.198,0.364,99512,2017-03-13 22:58:39:063,,,,,,,,,,,,,,,,,,,,,,,,,,,,,
-0.572,1.849,7.397,0.516,-0.312,0.294,100012,2017-03-13 22:58:39:563,,,,,,,,,,,,,,,,,,,,,,,,,,,,,
-0.047,2.534,7.768,-0.289,-0.362,0.011,100513,2017-03-13 22:58:40:064,,,,,,,,,,,,,,,,,,,,,,,,,,,,,
1.237,2.572,6.828,0.642,-0.555,0.502,101013,2017-03-13 22:58:40:564,,,,,,,,,,,,,,,,,,,,,,,,,,,,,
-0.434,1.216,7.67,0.796,-1.224,0.794,101512,2017-03-13 22:58:41:063,,,,,,,,,,,,,,,,,,,,,,,,,,,,,
0.336,0.867,7.241,0.568,-0.921,0.466,102013,2017-03-13 22:58:41:564,,,,,,,,,,,,,,,,,,,,,,,,,,,,,
0.354,2.087,9.375,0.323,-0.593,-0.781,102513,2017-03-13 22:58:42:064,,,,,,,,,,,,,,,,,,,,,,,,,,,,,
-0.437,1.039,8.216,0.845,-1.053,0.16,103013,2017-03-13 22:58:42:564,,,,,,,,,,,,,,,,,,,,,,,,,,,,,
0.45,0.418,7.964,0.798,-1.792,0.994,103512,2017-03-13 22:58:43:063,,,,,,,,,,,,,,,,,,,,,,,,,,,,,
0.031,-1.149,9.201,0.975,-1.654,0.743,104012,2017-03-13 22:58:43:563,,,,,,,,,,,,,,,,,,,,,,,,,,,,,
0.614,0.203,8.768,0.878,-1.43,0.648,104512,2017-03-13 22:58:44:063,,,,,,,,,,,,,,,,,,,,,,,,,,,,,
0.281,-0.961,8.699,0.986,-1.493,0.547,105013,2017-03-13 22:58:44:564,,,,,,,,,,,,,,,,,,,,,,,,,,,,,
0.663,-0.774,8.506,0.918,-1.477,0.041,105512,2017-03-13 22:58:45:063,,,,,,,,,,,,,,,,,,,,,,,,,,,,,
0.436,-0.916,10.027,1.013,-1.967,0.572,106012,2017-03-13 22:58:45:563,,,,,,,,,,,,,,,,,,,,,,,,,,,,,
1.138,-0.689,8.167,0.614,-1.775,-0.055,106513,2017-03-13 22:58:46:064,,,,,,,,,,,,,,,,,,,,,,,,,,,,,
0.176,0.348,8.887,0.909,-0.871,0.281,107012,2017-03-13 22:58:46:563,,,,,,,,,,,,,,,,,,,,,,,,,,,,,
-0.849,1.957,8.036,-0.648,0.991,-0.527,107513,2017-03-13 22:58:47:064,,,,,,,,,,,,,,,,,,,,,,,,,,,,,
-0.163,2.932,7.669,-0.008,1.07,-0.547,108013,2017-03-13 22:58:47:564,,,,,,,,,,,,,,,,,,,,,,,,,,,,,
-1.653,3.872,17.332,0.5,1.903,-1.226,108513,2017-03-13 22:58:48:064,,,,,,,,,,,,,,,,,,,,,,,,,,,,,
-4.888,-0.008,7.956,-2.424,-2.118,-0.622,109012,2017-03-13 22:58:48:563,,,,,,,,,,,,,,,,,,,,,,,,,,,,,
-5.361,1.395,7.154,-0.994,0.395,-0.603,109512,2017-03-13 22:58:49:063,,,,,,,,,,,,,,,,,,,,,,,,,,,,,
-4.405,2.416,6.924,-0.441,1.186,-0.948,110012,2017-03-13 22:58:49:563,,,,,,,,,,,,,,,,,,,,,,,,,,,,,
-5.069,2.369,6.461,-0.814,1.199,-0.466,110512,2017-03-13 22:58:50:063,,,,,,,,,,,,,,,,,,,,,,,,,,,,,
-5.063,2.911,7.366,-0.179,1.825,-0.044,111012,2017-03-13 22:58:50:563,,,,,,,,,,,,,,,,,,,,,,,,,,,,,
-7.026,-0.304,6.67,-1.591,-0.087,-1.138,111513,2017-03-13 22:58:51:064,,,,,,,,,,,,,,,,,,,,,,,,,,,,,
-6.192,0.893,6.518,-0.872,-0.045,-0.581,112013,2017-03-13 22:58:51:564,,,,,,,,,,,,,,,,,,,,,,,,,,,,,
-6.348,0.658,6.066,1.147,-0.478,0.402,112513,2017-03-13 22:58:52:064,,,,,,,,,,,,,,,,,,,,,,,,,,,,,
-6.031,-0.445,6.269,-1.026,-0.376,-0.503,113012,2017-03-13 22:58:52:563,,,,,,,,,,,,,,,,,,,,,,,,,,,,,
-5.636,0.043,6.263,0.305,-1.173,-0.231,113512,2017-03-13 22:58:53:063,,,,,,,,,,,,,,,,,,,,,,,,,,,,,
-5.757,-0.297,6.721,-0.038,-1.014,-0.108,114012,2017-03-13 22:58:53:563,,,,,,,,,,,,,,,,,,,,,,,,,,,,,
-5.357,-0.748,6.714,-0.167,-0.682,-0.309,114512,2017-03-13 22:58:54:063,,,,,,,,,,,,,,,,,,,,,,,,,,,,,
-6.388,-0.643,6.855,-0.399,-0.67,0.254,115013,2017-03-13 22:58:54:564,,,,,,,,,,,,,,,,,,,,,,,,,,,,,
-3.792,-0.411,7.548,1.528,-0.569,0.936,115513,2017-03-13 22:58:55:064,,,,,,,,,,,,,,,,,,,,,,,,,,,,,
-5.483,-0.2,6.537,0.635,-0.112,0.691,116012,2017-03-13 22:58:55:563,,,,,,,,,,,,,,,,,,,,,,,,,,,,,
-5.665,-0.455,6.667,0.652,-0.271,-0.138,116512,2017-03-13 22:58:56:063,,,,,,,,,,,,,,,,,,,,,,,,,,,,,
-5.952,-1.139,6.019,0.114,-0.618,0.034,117013,2017-03-13 22:58:56:564,,,,,,,,,,,,,,,,,,,,,,,,,,,,,
-5.531,-0.707,6.49,0.069,-0.381,0.482,117512,2017-03-13 22:58:57:063,,,,,,,,,,,,,,,,,,,,,,,,,,,,,
-6.354,-0.582,7.726,0.145,-0.173,-0.409,118012,2017-03-13 22:58:57:563,,,,,,,,,,,,,,,,,,,,,,,,,,,,,
-5.936,-0.931,7.097,0.03,-0.296,0.249,118513,2017-03-13 22:58:58:064,,,,,,,,,,,,,,,,,,,,,,,,,,,,,
-4.019,-0.235,6.112,0.612,0.129,0.448,119012,2017-03-13 22:58:58:563,,,,,,,,,,,,,,,,,,,,,,,,,,,,,
-5.349,-0.194,7.389,0.275,-0.516,0.137,119513,2017-03-13 22:58:59:064,,,,,,,,,,,,,,,,,,,,,,,,,,,,,
-5.211,-1.075,7.398,-0.102,-0.348,0.528,120012,2017-03-13 22:58:59:563,,,,,,,,,,,,,,,,,,,,,,,,,,,,,
-4.369,-0.32,7.489,0.769,-0.121,0.083,120513,2017-03-13 22:59:00:064,,,,,,,,,,,,,,,,,,,,,,,,,,,,,
-4.655,-0.661,7.694,0.642,-0.054,1.086,121013,2017-03-13 22:59:00:564,,,,,,,,,,,,,,,,,,,,,,,,,,,,,
-5.823,-0.955,6.909,0.226,-0.163,0.004,121513,2017-03-13 22:59:01:064,,,,,,,,,,,,,,,,,,,,,,,,,,,,,
-5.785,-0.709,7.699,0.215,0.281,0.898,122013,2017-03-13 22:59:01:564,,,,,,,,,,,,,,,,,,,,,,,,,,,,,
-5.059,-0.789,7.262,1.073,0.255,0.292,122513,2017-03-13 22:59:02:064,,,,,,,,,,,,,,,,,,,,,,,,,,,,,
-4.199,-0.029,5.97,0.588,0.194,0.167,123012,2017-03-13 22:59:02:563,,,,,,,,,,,,,,,,,,,,,,,,,,,,,
-4.293,-0.364,5.57,1.072,-0.052,-0.5,123513,2017-03-13 22:59:03:064,,,,,,,,,,,,,,,,,,,,,,,,,,,,,
-3.877,0.046,6.526,0.875,-0.318,2.187,124012,2017-03-13 22:59:03:563,,,,,,,,,,,,,,,,,,,,,,,,,,,,,
-4.774,0.156,6.951,1.733,-0.345,0.984,124513,2017-03-13 22:59:04:064,,,,,,,,,,,,,,,,,,,,,,,,,,,,,
-4.129,-1.059,9.167,1.786,-0.931,-0.015,125012,2017-03-13 22:59:04:563,,,,,,,,,,,,,,,,,,,,,,,,,,,,,
-4.344,-0.998,8.838,2.824,-0.53,0.771,125513,2017-03-13 22:59:05:064,,,,,,,,,,,,,,,,,,,,,,,,,,,,,
-2.347,-0.845,8.431,2.21,0.013,1.07,126013,2017-03-13 22:59:05:564,,,,,,,,,,,,,,,,,,,,,,,,,,,,,
-2.159,0.464,8.631,2.617,-0.63,0.841,126512,2017-03-13 22:59:06:063,,,,,,,,,,,,,,,,,,,,,,,,,,,,,
-2.369,-0.622,8.442,2.363,-0.245,1.188,127013,2017-03-13 22:59:06:564,,,,,,,,,,,,,,,,,,,,,,,,,,,,,
-1.804,0.288,9.082,1.414,-0.21,1.316,127512,2017-03-13 22:59:07:063,,,,,,,,,,,,,,,,,,,,,,,,,,,,,
-0.691,0.79,6.72,1.949,0.592,1.141,128012,2017-03-13 22:59:07:563,,,,,,,,,,,,,,,,,,,,,,,,,,,,,
-5.154,1.475,8.141,0.526,1.375,0.038,128513,2017-03-13 22:59:08:064,,,,,,,,,,,,,,,,,,,,,,,,,,,,,
-3.599,2.079,7.217,-0.276,1.292,0.034,129013,2017-03-13 22:59:08:564,,,,,,,,,,,,,,,,,,,,,,,,,,,,,
-3.105,1.538,8.665,0.195,1.797,-0.103,129513,2017-03-13 22:59:09:064,,,,,,,,,,,,,,,,,,,,,,,,,,,,,
-4.957,1.642,10.802,-0.606,0.587,-0.678,130013,2017-03-13 22:59:09:564,,,,,,,,,,,,,,,,,,,,,,,,,,,,,
-4.531,2.718,7.879,-0.613,0.678,0.198,130513,2017-03-13 22:59:10:064,,,,,,,,,,,,,,,,,,,,,,,,,,,,,
-5.478,2.69,7.212,-1.114,1.387,-0.584,131013,2017-03-13 22:59:10:564,,,,,,,,,,,,,,,,,,,,,,,,,,,,,
-6.218,2.255,6.316,-0.383,1.298,-0.346,131513,2017-03-13 22:59:11:064,,,,,,,,,,,,,,,,,,,,,,,,,,,,,
-7.023,1.42,7.515,-0.553,0.92,0.259,132013,2017-03-13 22:59:11:564,,,,,,,,,,,,,,,,,,,,,,,,,,,,,
-5.091,-0.631,6.599,-0.129,-1.098,-0.001,132513,2017-03-13 22:59:12:064,,,,,,,,,,,,,,,,,,,,,,,,,,,,,
-4.451,-0.395,7.22,0.542,-1.234,-0.459,133012,2017-03-13 22:59:12:563,,,,,,,,,,,,,,,,,,,,,,,,,,,,,
-5.597,-0.713,6.86,-0.165,-1.498,-0.064,133512,2017-03-13 22:59:13:063,,,,,,,,,,,,,,,,,,,,,,,,,,,,,
-3.791,-0.585,7.433,1.535,-1.433,0.982,134013,2017-03-13 22:59:13:564,,,,,,,,,,,,,,,,,,,,,,,,,,,,,
-5.193,-0.974,5.673,0.225,-1.167,-0.377,134513,2017-03-13 22:59:14:064,,,,,,,,,,,,,,,,,,,,,,,,,,,,,
-5.75,-0.218,6.833,0.095,-1.068,0.18,135012,2017-03-13 22:59:14:563,,,,,,,,,,,,,,,,,,,,,,,,,,,,,
-4.751,0.089,6.394,-0.255,-1.066,0.115,135512,2017-03-13 22:59:15:063,,,,,,,,,,,,,,,,,,,,,,,,,,,,,
-5.731,-0.142,7.324,-0.108,-0.775,0.495,136012,2017-03-13 22:59:15:563,,,,,,,,,,,,,,,,,,,,,,,,,,,,,
-5.278,-0.786,7.352,0.676,-0.484,-0.23,136512,2017-03-13 22:59:16:063,,,,,,,,,,,,,,,,,,,,,,,,,,,,,
-4.669,0.031,8.169,0.415,-0.572,0.317,137012,2017-03-13 22:59:16:563,,,,,,,,,,,,,,,,,,,,,,,,,,,,,
-3.833,-0.448,4.881,1.063,-0.457,-0.325,137512,2017-03-13 22:59:17:063,,,,,,,,,,,,,,,,,,,,,,,,,,,,,
-6.027,-0.15,7.493,0.788,-0.364,0.177,138013,2017-03-13 22:59:17:564,,,,,,,,,,,,,,,,,,,,,,,,,,,,,
-5.854,0.199,5.615,-0.115,-0.17,0.206,138512,2017-03-13 22:59:18:063,,,,,,,,,,,,,,,,,,,,,,,,,,,,,
-3.542,-2.196,5.78,-0.12,-0.519,0.243,139012,2017-03-13 22:59:18:563,,,,,,,,,,,,,,,,,,,,,,,,,,,,,
-3.703,-0.717,7.738,0.806,-0.036,1.82,139513,2017-03-13 22:59:19:064,,,,,,,,,,,,,,,,,,,,,,,,,,,,,
-5.581,-0.427,7.366,1.215,-0.576,1.133,140012,2017-03-13 22:59:19:563,,,,,,,,,,,,,,,,,,,,,,,,,,,,,
-4.766,-0.421,7.328,0.969,-0.171,0.174,140512,2017-03-13 22:59:20:063,,,,,,,,,,,,,,,,,,,,,,,,,,,,,
-4.802,-0.48,6.548,1.094,0.034,0.615,141012,2017-03-13 22:59:20:563,,,,,,,,,,,,,,,,,,,,,,,,,,,,,
-4.309,0.787,7.613,0.887,-0.383,0.664,141513,2017-03-13 22:59:21:064,,,,,,,,,,,,,,,,,,,,,,,,,,,,,
-4.679,-0.68,7.047,0.601,-0.215,0.626,142013,2017-03-13 22:59:21:564,,,,,,,,,,,,,,,,,,,,,,,,,,,,,
-4.587,-0.643,7.476,0.787,-0.112,0.792,142513,2017-03-13 22:59:22:064,,,,,,,,,,,,,,,,,,,,,,,,,,,,,
-4.687,-0.868,7.152,0.697,-0.339,0.234,143012,2017-03-13 22:59:22:563,,,,,,,,,,,,,,,,,,,,,,,,,,,,,
-4.009,-0.794,7.591,0.402,-0.062,0.521,143513,2017-03-13 22:59:23:064,,,,,,,,,,,,,,,,,,,,,,,,,,,,,
-4.494,-0.326,7.456,0.666,-0.104,0.421,144013,2017-03-13 22:59:23:564,,,,,,,,,,,,,,,,,,,,,,,,,,,,,
-5.025,-1.022,7.828,0.258,-0.122,0.137,144513,2017-03-13 22:59:24:064,,,,,,,,,,,,,,,,,,,,,,,,,,,,,
-4.632,-0.447,7.035,0.227,0.097,0.088,145013,2017-03-13 22:59:24:564,,,,,,,,,,,,,,,,,,,,,,,,,,,,,
-5.348,-0.224,7.306,-0.152,-0.012,0.029,145513,2017-03-13 22:59:25:064,,,,,,,,,,,,,,,,,,,,,,,,,,,,,
-5.816,-0.244,7.841,-0.036,-0.013,0.078,146012,2017-03-13 22:59:25:563,,,,,,,,,,,,,,,,,,,,,,,,,,,,,
-4.108,0.629,7.571,0.455,0.037,0.175,146513,2017-03-13 22:59:26:064,,,,,,,,,,,,,,,,,,,,,,,,,,,,,
-4.722,-0.527,7.958,0.205,-0.154,0.51,147013,2017-03-13 22:59:26:564,,,,,,,,,,,,,,,,,,,,,,,,,,,,,
-3.235,-0.272,4.582,-0.498,-0.167,0.21,147513,2017-03-13 22:59:27:064,,,,,,,,,,,,,,,,,,,,,,,,,,,,,
-3.938,-0.268,8.207,0.916,-0.293,0.052,148012,2017-03-13 22:59:27:563,,,,,,,,,,,,,,,,,,,,,,,,,,,,,
-4.399,-0.693,7.193,0.523,-0.139,0.393,148513,2017-03-13 22:59:28:064,,,,,,,,,,,,,,,,,,,,,,,,,,,,,
-4.374,-0.516,7.398,0.264,-0.056,0.248,149013,2017-03-13 22:59:28:564,,,,,,,,,,,,,,,,,,,,,,,,,,,,,
-4.443,-0.064,7.536,0.26,-0.36,0.19,149512,2017-03-13 22:59:29:063,,,,,,,,,,,,,,,,,,,,,,,,,,,,,
-4.622,-0.795,8.297,0.276,-0.27,0.089,150013,2017-03-13 22:59:29:564,,,,,,,,,,,,,,,,,,,,,,,,,,,,,
-4.466,-0.454,7.561,0.281,-0.241,-0.011,150513,2017-03-13 22:59:30:064,,,,,,,,,,,,,,,,,,,,,,,,,,,,,
-4.58,-0.388,6.569,-0.074,-0.179,0.358,151013,2017-03-13 22:59:30:564,,,,,,,,,,,,,,,,,,,,,,,,,,,,,
-3.727,-0.067,6.659,0.782,-0.049,-0.137,151512,2017-03-13 22:59:31:063,,,,,,,,,,,,,,,,,,,,,,,,,,,,,
-4.314,-0.399,7.783,0.607,0.033,0.282,152013,2017-03-13 22:59:31:564,,,,,,,,,,,,,,,,,,,,,,,,,,,,,
-3.946,-0.354,7.89,0.268,-0.149,0.407,152513,2017-03-13 22:59:32:064,,,,,,,,,,,,,,,,,,,,,,,,,,,,,
-4.332,-1.174,9.041,0.309,-0.011,0.394,153013,2017-03-13 22:59:32:564,,,,,,,,,,,,,,,,,,,,,,,,,,,,,
-3.971,-1.09,7.858,0.264,-0.09,0.427,153513,2017-03-13 22:59:33:064,,,,,,,,,,,,,,,,,,,,,,,,,,,,,
-3.632,-0.65,7.348,0.356,-0.137,0.071,154013,2017-03-13 22:59:33:564,,,,,,,,,,,,,,,,,,,,,,,,,,,,,
-3.91,-0.146,8.07,0.624,0.254,0.261,154513,2017-03-13 22:59:34:064,,,,,,,,,,,,,,,,,,,,,,,,,,,,,
-4.004,-0.681,7.732,1.987,0.4,0.252,155013,2017-03-13 22:59:34:564,,,,,,,,,,,,,,,,,,,,,,,,,,,,,
-3.69,-0.402,7.985,0.519,0.011,0.049,155513,2017-03-13 22:59:35:064,,,,,,,,,,,,,,,,,,,,,,,,,,,,,
-4.617,-0.384,7.259,0.377,-0.184,0.199,156013,2017-03-13 22:59:35:564,,,,,,,,,,,,,,,,,,,,,,,,,,,,,
-4.263,-0.658,8.232,0.104,-0.038,0.553,156513,2017-03-13 22:59:36:064,,,,,,,,,,,,,,,,,,,,,,,,,,,,,
-4.799,-0.015,7.065,-0.507,-0.261,-0.397,157013,2017-03-13 22:59:36:564,,,,,,,,,,,,,,,,,,,,,,,,,,,,,
-4.222,-0.652,7.522,-0.232,-0.23,-0.006,157513,2017-03-13 22:59:37:064,,,,,,,,,,,,,,,,,,,,,,,,,,,,,
-3.848,-0.069,7.979,0.002,-0.253,0.341,158013,2017-03-13 22:59:37:564,,,,,,,,,,,,,,,,,,,,,,,,,,,,,
-4.456,-0.053,7.592,-0.014,-0.026,-0.041,158513,2017-03-13 22:59:38:064,,,,,,,,,,,,,,,,,,,,,,,,,,,,,
-3.621,-0.006,8.012,-0.029,-0.038,0.083,159012,2017-03-13 22:59:38:563,,,,,,,,,,,,,,,,,,,,,,,,,,,,,
-3.844,-0.527,7.859,0.326,-0.258,-0.176,159513,2017-03-13 22:59:39:064,,,,,,,,,,,,,,,,,,,,,,,,,,,,,
-4.124,-0.097,6.574,0.393,-0.026,0.098,160013,2017-03-13 22:59:39:564,,,,,,,,,,,,,,,,,,,,,,,,,,,,,
-3.608,-0.254,7.144,0.15,-0.065,0.196,160512,2017-03-13 22:59:40:063,,,,,,,,,,,,,,,,,,,,,,,,,,,,,
-4.235,-0.425,7.781,-0.007,-0.095,0.238,161013,2017-03-13 22:59:40:564,,,,,,,,,,,,,,,,,,,,,,,,,,,,,
-3.499,0.009,8.017,0.529,0.071,0.001,161512,2017-03-13 22:59:41:063,,,,,,,,,,,,,,,,,,,,,,,,,,,,,
-4.44,-0.578,9.162,-0.052,-0.135,0.799,162012,2017-03-13 22:59:41:563,,,,,,,,,,,,,,,,,,,,,,,,,,,,,
-3.918,-0.493,7.647,0.195,-0.14,0.162,162512,2017-03-13 22:59:42:063,,,,,,,,,,,,,,,,,,,,,,,,,,,,,
-3.546,-0.652,7.707,0.118,-0.024,0.672,163012,2017-03-13 22:59:42:563,,,,,,,,,,,,,,,,,,,,,,,,,,,,,
-4.701,0.331,8.421,0.664,-0.138,0.325,163513,2017-03-13 22:59:43:064,,,,,,,,,,,,,,,,,,,,,,,,,,,,,
-4.673,-0.003,8.308,0.447,0.027,0.213,164013,2017-03-13 22:59:43:564,,,,,,,,,,,,,,,,,,,,,,,,,,,,,
-4.34,-0.575,8.589,0.483,-0.052,0.113,164513,2017-03-13 22:59:44:064,,,,,,,,,,,,,,,,,,,,,,,,,,,,,
-4.456,-0.603,8.326,0.229,-0.095,-0.192,165012,2017-03-13 22:59:44:563,,,,,,,,,,,,,,,,,,,,,,,,,,,,,
-4.478,-0.569,7.058,0.384,0.219,0.276,165513,2017-03-13 22:59:45:064,,,,,,,,,,,,,,,,,,,,,,,,,,,,,
-4.879,-0.666,8.816,0.407,-0.061,-0.274,166013,2017-03-13 22:59:45:564,,,,,,,,,,,,,,,,,,,,,,,,,,,,,
-4.177,-0.116,8.287,0.163,-0.029,-0.308,166513,2017-03-13 22:59:46:064,,,,,,,,,,,,,,,,,,,,,,,,,,,,,
-5.061,-0.171,7.053,-0.286,-0.236,-0.167,167012,2017-03-13 22:59:46:563,,,,,,,,,,,,,,,,,,,,,,,,,,,,,
-4.774,-0.963,6.073,0.101,-0.188,-0.267,167513,2017-03-13 22:59:47:064,,,,,,,,,,,,,,,,,,,,,,,,,,,,,
-4.122,-0.405,7.349,0.165,-0.442,0.161,168012,2017-03-13 22:59:47:563,,,,,,,,,,,,,,,,,,,,,,,,,,,,,
-4.319,-0.654,7.9,0.084,-0.26,0.268,168513,2017-03-13 22:59:48:064,,,,,,,,,,,,,,,,,,,,,,,,,,,,,
-4.59,-0.535,7.804,0.181,-0.314,0.242,169013,2017-03-13 22:59:48:564,,,,,,,,,,,,,,,,,,,,,,,,,,,,,
-4.041,-0.163,6.75,0.391,-0.045,0.145,169513,2017-03-13 22:59:49:064,,,,,,,,,,,,,,,,,,,,,,,,,,,,,
-4.319,-1.081,7.291,0.437,0.18,0.384,170013,2017-03-13 22:59:49:564,,,,,,,,,,,,,,,,,,,,,,,,,,,,,
-3.663,-0.244,7.765,0.192,-0.144,0.199,170513,2017-03-13 22:59:50:064,,,,,,,,,,,,,,,,,,,,,,,,,,,,,
-3.595,-0.608,8.153,0.522,-0.266,-0.006,171012,2017-03-13 22:59:50:563,,,,,,,,,,,,,,,,,,,,,,,,,,,,,
-4.132,-0.354,7.632,0.153,-0.413,-0.158,171513,2017-03-13 22:59:51:064,,,,,,,,,,,,,,,,,,,,,,,,,,,,,
-3.729,-0.785,7.45,0.301,-0.075,0.324,172013,2017-03-13 22:59:51:564,,,,,,,,,,,,,,,,,,,,,,,,,,,,,
-6.042,-1.053,10.723,-0.066,-0.154,0.741,172513,2017-03-13 22:59:52:064,,,,,,,,,,,,,,,,,,,,,,,,,,,,,
-4.165,-0.679,8.175,0.267,-0.57,0.011,173013,2017-03-13 22:59:52:564,,,,,,,,,,,,,,,,,,,,,,,,,,,,,
-3.913,-1.404,8.157,0.443,-0.478,0.412,173513,2017-03-13 22:59:53:064,,,,,,,,,,,,,,,,,,,,,,,,,,,,,
-4.022,-0.382,7.115,0.868,-0.122,-0.632,174012,2017-03-13 22:59:53:563,,,,,,,,,,,,,,,,,,,,,,,,,,,,,
-4.665,-0.816,9.158,0.319,-0.477,0.058,174513,2017-03-13 22:59:54:064,,,,,,,,,,,,,,,,,,,,,,,,,,,,,
-4.425,-0.695,7.426,0.593,-0.294,0.458,175013,2017-03-13 22:59:54:564,,,,,,,,,,,,,,,,,,,,,,,,,,,,,
-6.167,-2.449,10.1,0.248,-0.769,0.263,175513,2017-03-13 22:59:55:064,,,,,,,,,,,,,,,,,,,,,,,,,,,,,
-3.466,-0.776,8.817,0.595,-0.289,-0.257,176013,2017-03-13 22:59:55:564,,,,,,,,,,,,,,,,,,,,,,,,,,,,,
-3.955,-0.722,7.136,0.164,-0.347,0.33,176512,2017-03-13 22:59:56:063,,,,,,,,,,,,,,,,,,,,,,,,,,,,,
-3.612,-1.441,6.903,0.737,0.191,0.064,177013,2017-03-13 22:59:56:564,,,,,,,,,,,,,,,,,,,,,,,,,,,,,
-6.929,-1.273,10.221,0.714,0.189,0.495,177512,2017-03-13 22:59:57:063,,,,,,,,,,,,,,,,,,,,,,,,,,,,,
-4.258,-0.564,7.865,0.099,0.238,1.568,178012,2017-03-13 22:59:57:563,,,,,,,,,,,,,,,,,,,,,,,,,,,,,
-4.078,-0.398,7.576,0.147,0.182,0.188,178513,2017-03-13 22:59:58:064,,,,,,,,,,,,,,,,,,,,,,,,,,,,,
-3.507,-0.931,7.205,0.538,-0.296,-0.052,179013,2017-03-13 22:59:58:564,,,,,,,,,,,,,,,,,,,,,,,,,,,,,
-3.69,-0.755,7.168,0.54,-0.109,-0.031,179513,2017-03-13 22:59:59:064,,,,,,,,,,,,,,,,,,,,,,,,,,,,,
-4.507,-0.433,9.929,0.206,-0.123,0.775,180013,2017-03-13 22:59:59:564,,,,,,,,,,,,,,,,,,,,,,,,,,,,,
-3.838,-0.201,7.241,0.262,-0.143,-0.579,180512,2017-03-13 23:00:00:063,,,,,,,,,,,,,,,,,,,,,,,,,,,,,
-4.057,-0.595,7.753,0.484,0.155,0.421,181012,2017-03-13 23:00:00:563,,,,,,,,,,,,,,,,,,,,,,,,,,,,,
-5.022,0.491,11.083,0.412,0.27,-1.135,181513,2017-03-13 23:00:01:064,,,,,,,,,,,,,,,,,,,,,,,,,,,,,
-4.117,-0.716,7.274,-0.661,-0.203,0.71,182013,2017-03-13 23:00:01:564,,,,,,,,,,,,,,,,,,,,,,,,,,,,,
-3.888,-0.631,7.232,0.678,0.184,0.235,182513,2017-03-13 23:00:02:064,,,,,,,,,,,,,,,,,,,,,,,,,,,,,
-3.881,-0.594,8.983,0.425,0.147,0.388,183013,2017-03-13 23:00:02:564,,,,,,,,,,,,,,,,,,,,,,,,,,,,,
-3.666,-0.415,8.071,0.498,0.155,0.186,183513,2017-03-13 23:00:03:064,,,,,,,,,,,,,,,,,,,,,,,,,,,,,
-4.525,-0.658,7.128,0.558,-0.007,0.182,184012,2017-03-13 23:00:03:563,,,,,,,,,,,,,,,,,,,,,,,,,,,,,
-5.317,-0.825,7.692,-0.26,-0.195,-0.039,184513,2017-03-13 23:00:04:064,,,,,,,,,,,,,,,,,,,,,,,,,,,,,
-4.216,-1.377,8.226,0.072,-0.424,0.128,185012,2017-03-13 23:00:04:563,,,,,,,,,,,,,,,,,,,,,,,,,,,,,
-4.112,-1.979,8.191,1.282,0.188,-0.594,185512,2017-03-13 23:00:05:063,,,,,,,,,,,,,,,,,,,,,,,,,,,,,
-2.092,-0.012,4.926,0.209,0.073,-0.008,186012,2017-03-13 23:00:05:563,,,,,,,,,,,,,,,,,,,,,,,,,,,,,
-5.806,-1.837,8.614,0.186,0.405,0.399,186512,2017-03-13 23:00:06:063,,,,,,,,,,,,,,,,,,,,,,,,,,,,,
-4.404,-0.868,8.961,0.051,0.168,0.833,187013,2017-03-13 23:00:06:564,,,,,,,,,,,,,,,,,,,,,,,,,,,,,
-3.87,-0.309,7.696,0.359,0.197,-0.051,187512,2017-03-13 23:00:07:063,,,,,,,,,,,,,,,,,,,,,,,,,,,,,
-2.323,-0.517,8.291,-0.174,-0.244,-0.615,188013,2017-03-13 23:00:07:564,,,,,,,,,,,,,,,,,,,,,,,,,,,,,
-4.122,-0.539,7.885,-0.02,-0.526,0.095,188513,2017-03-13 23:00:08:064,,,,,,,,,,,,,,,,,,,,,,,,,,,,,
-5.016,-0.904,7.809,-0.214,-0.183,0.549,189013,2017-03-13 23:00:08:564,,,,,,,,,,,,,,,,,,,,,,,,,,,,,
-4.322,-1.471,8.924,-0.175,-0.248,1.442,189513,2017-03-13 23:00:09:064,,,,,,,,,,,,,,,,,,,,,,,,,,,,,
-4.824,-0.917,8.88,-0.141,-0.027,0.687,190013,2017-03-13 23:00:09:564,,,,,,,,,,,,,,,,,,,,,,,,,,,,,
-3.493,-0.179,7.872,0.732,0.004,-0.65,190514,2017-03-13 23:00:10:065,,,,,,,,,,,,,,,,,,,,,,,,,,,,,
-4.106,-0.413,7.024,0.123,0.165,0.22,191013,2017-03-13 23:00:10:564,,,,,,,,,,,,,,,,,,,,,,,,,,,,,
-4.167,-0.789,7.464,0.19,-0.197,0.177,191513,2017-03-13 23:00:11:064,,,,,,,,,,,,,,,,,,,,,,,,,,,,,
-3.143,-0.618,6.073,-0.279,0.131,0.368,192012,2017-03-13 23:00:11:563,,,,,,,,,,,,,,,,,,,,,,,,,,,,,
-4.397,-0.468,7.571,-0.129,-0.195,-0.054,192513,2017-03-13 23:00:12:064,,,,,,,,,,,,,,,,,,,,,,,,,,,,,
-3.408,-0.134,7.722,0.206,-0.158,0.219,193012,2017-03-13 23:00:12:563,,,,,,,,,,,,,,,,,,,,,,,,,,,,,
-5.301,-1.245,7.182,-0.432,-0.326,-0.378,193513,2017-03-13 23:00:13:064,,,,,,,,,,,,,,,,,,,,,,,,,,,,,
-3.358,0.034,7.275,-0.28,-0.402,-0.171,194013,2017-03-13 23:00:13:564,,,,,,,,,,,,,,,,,,,,,,,,,,,,,
-4.497,-0.826,9.425,0.263,0.092,0.115,194513,2017-03-13 23:00:14:064,,,,,,,,,,,,,,,,,,,,,,,,,,,,,
-4.098,-0.285,7.014,0.01,-0.301,0.427,195013,2017-03-13 23:00:14:564,,,,,,,,,,,,,,,,,,,,,,,,,,,,,
-4.839,-0.524,7.665,0.355,-0.091,0.074,195512,2017-03-13 23:00:15:063,,,,,,,,,,,,,,,,,,,,,,,,,,,,,
-4.666,0.332,8.917,0.368,-0.1,0.117,196013,2017-03-13 23:00:15:564,,,,,,,,,,,,,,,,,,,,,,,,,,,,,
-4.203,0.02,8.646,0.466,0.007,0.228,196513,2017-03-13 23:00:16:064,,,,,,,,,,,,,,,,,,,,,,,,,,,,,
-4.427,-0.583,7.927,0.231,0.019,0.259,197012,2017-03-13 23:00:16:563,,,,,,,,,,,,,,,,,,,,,,,,,,,,,
-4.089,0.203,7.073,0.259,-0.005,0.298,197512,2017-03-13 23:00:17:063,,,,,,,,,,,,,,,,,,,,,,,,,,,,,
-3.28,0.44,7.059,0.688,0.159,0.278,198013,2017-03-13 23:00:17:564,,,,,,,,,,,,,,,,,,,,,,,,,,,,,
-4.011,0.917,7.488,0.385,0.294,-0.133,198513,2017-03-13 23:00:18:064,,,,,,,,,,,,,,,,,,,,,,,,,,,,,
-3.432,0.95,8.151,0.451,0.358,0.176,199013,2017-03-13 23:00:18:564,,,,,,,,,,,,,,,,,,,,,,,,,,,,,
-4.07,1.405,7.714,0.345,0.528,0.356,199513,2017-03-13 23:00:19:064,,,,,,,,,,,,,,,,,,,,,,,,,,,,,
-3.918,-0.66,7.826,0.601,-0.04,-0.06,200013,2017-03-13 23:00:19:564,,,,,,,,,,,,,,,,,,,,,,,,,,,,,
-3.881,-0.502,6.999,0.234,0.218,0.133,200512,2017-03-13 23:00:20:063,,,,,,,,,,,,,,,,,,,,,,,,,,,,,
-3.653,-0.36,6.874,-0.004,0.345,0.057,201013,2017-03-13 23:00:20:564,,,,,,,,,,,,,,,,,,,,,,,,,,,,,
-3.681,1.499,7.834,-0.257,0.225,-0.153,201513,2017-03-13 23:00:21:064,,,,,,,,,,,,,,,,,,,,,,,,,,,,,
-3.771,0.77,6.148,-0.339,-0.425,-0.301,202012,2017-03-13 23:00:21:563,,,,,,,,,,,,,,,,,,,,,,,,,,,,,
-3.798,0.134,8.005,-0.105,-0.74,0.245,202513,2017-03-13 23:00:22:064,,,,,,,,,,,,,,,,,,,,,,,,,,,,,
-2.795,0.385,7.08,0.289,-0.388,0.216,203013,2017-03-13 23:00:22:564,,,,,,,,,,,,,,,,,,,,,,,,,,,,,
-3.912,0.171,6.567,-0.03,-0.19,-0.032,203513,2017-03-13 23:00:23:064,,,,,,,,,,,,,,,,,,,,,,,,,,,,,
-3.72,-0.021,7.212,-0.094,-0.382,0.288,204012,2017-03-13 23:00:23:563,,,,,,,,,,,,,,,,,,,,,,,,,,,,,
-4.185,-0.025,8.039,0.046,-0.298,0.195,204513,2017-03-13 23:00:24:064,,,,,,,,,,,,,,,,,,,,,,,,,,,,,
-4.07,-0.06,8.761,0.484,-0.386,-0.685,205012,2017-03-13 23:00:24:563,,,,,,,,,,,,,,,,,,,,,,,,,,,,,
-4.586,-0.577,12.87,-1.26,-0.351,1.456,205513,2017-03-13 23:00:25:064,,,,,,,,,,,,,,,,,,,,,,,,,,,,,
-4.192,0.155,6.772,0.369,-0.494,-0.191,206013,2017-03-13 23:00:25:564,,,,,,,,,,,,,,,,,,,,,,,,,,,,,
-3.109,-0.209,10.904,0.63,-0.491,-1.065,206513,2017-03-13 23:00:26:064,,,,,,,,,,,,,,,,,,,,,,,,,,,,,
-3.705,-0.189,6.727,0.943,-0.761,-1.21,207013,2017-03-13 23:00:26:564,,,,,,,,,,,,,,,,,,,,,,,,,,,,,
-3.656,-0.455,7.598,0.002,-0.678,0.177,207512,2017-03-13 23:00:27:063,,,,,,,,,,,,,,,,,,,,,,,,,,,,,
-4.049,-0.28,7.215,-0.097,0.066,1.402,208013,2017-03-13 23:00:27:564,,,,,,,,,,,,,,,,,,,,,,,,,,,,,
-4.084,-0.779,6.87,-0.268,-0.025,-0.171,208513,2017-03-13 23:00:28:064,,,,,,,,,,,,,,,,,,,,,,,,,,,,,
-4.394,-0.112,7.862,0.089,-0.35,-0.163,209013,2017-03-13 23:00:28:564,,,,,,,,,,,,,,,,,,,,,,,,,,,,,
-5.378,-0.711,10.069,-0.165,0.138,0.173,209513,2017-03-13 23:00:29:064,,,,,,,,,,,,,,,,,,,,,,,,,,,,,
-5.506,-1.923,9.143,0.774,-0.667,-1.23,210013,2017-03-13 23:00:29:564,,,,,,,,,,,,,,,,,,,,,,,,,,,,,
-2.164,-0.469,3.937,-1.119,-0.017,0.006,210512,2017-03-13 23:00:30:063,,,,,,,,,,,,,,,,,,,,,,,,,,,,,
-4.339,-1.482,9.505,-0.398,0.262,0.121,211012,2017-03-13 23:00:30:563,,,,,,,,,,,,,,,,,,,,,,,,,,,,,
-3.416,-1.149,6.782,0.431,-0.555,-0.569,211512,2017-03-13 23:00:31:063,,,,,,,,,,,,,,,,,,,,,,,,,,,,,
-5.71,-0.833,9.484,-0.461,-0.667,0.813,212012,2017-03-13 23:00:31:563,,,,,,,,,,,,,,,,,,,,,,,,,,,,,
-4.582,-0.685,6.835,0.022,-0.076,0.08,212513,2017-03-13 23:00:32:064,,,,,,,,,,,,,,,,,,,,,,,,,,,,,
-4.8,-1.018,7.699,-0.138,-0.481,0.808,213013,2017-03-13 23:00:32:564,,,,,,,,,,,,,,,,,,,,,,,,,,,,,
-3.863,0.295,7.585,-0.255,-0.133,0.089,213513,2017-03-13 23:00:33:064,,,,,,,,,,,,,,,,,,,,,,,,,,,,,
-4.18,-0.177,7.937,1.282,-0.184,-0.042,214012,2017-03-13 23:00:33:563,,,,,,,,,,,,,,,,,,,,,,,,,,,,,
-4.936,-0.832,8.232,-0.238,-0.306,0.61,214512,2017-03-13 23:00:34:063,,,,,,,,,,,,,,,,,,,,,,,,,,,,,
-4.161,-0.715,8.082,0.144,-0.205,0.383,215013,2017-03-13 23:00:34:564,,,,,,,,,,,,,,,,,,,,,,,,,,,,,
-3.383,-0.301,7.893,0.435,-0.397,-0.133,215513,2017-03-13 23:00:35:064,,,,,,,,,,,,,,,,,,,,,,,,,,,,,
-1.678,-2.214,4.971,-0.899,-0.189,1.399,216013,2017-03-13 23:00:35:564,,,,,,,,,,,,,,,,,,,,,,,,,,,,,
-2.445,-1.936,2.65,0.636,0.379,-0.767,216513,2017-03-13 23:00:36:064,,,,,,,,,,,,,,,,,,,,,,,,,,,,,
-3.66,-0.234,6.614,0.193,-0.005,-0.616,217013,2017-03-13 23:00:36:564,,,,,,,,,,,,,,,,,,,,,,,,,,,,,
-3.894,0.469,7.923,1.054,0.081,-0.473,217513,2017-03-13 23:00:37:064,,,,,,,,,,,,,,,,,,,,,,,,,,,,,
-6.648,-1.882,10.017,-0.301,-0.339,0.525,218013,2017-03-13 23:00:37:564,,,,,,,,,,,,,,,,,,,,,,,,,,,,,
-4.327,-0.876,7.327,0.413,0.151,-0.589,218513,2017-03-13 23:00:38:064,,,,,,,,,,,,,,,,,,,,,,,,,,,,,
-5.148,-0.289,7.09,-0.667,-0.073,0.045,219013,2017-03-13 23:00:38:564,,,,,,,,,,,,,,,,,,,,,,,,,,,,,
-5.335,-0.675,8.085,-0.091,-0.678,-0.313,219512,2017-03-13 23:00:39:063,,,,,,,,,,,,,,,,,,,,,,,,,,,,,
-5.152,-1.219,6.23,0.096,-0.188,-0.423,220012,2017-03-13 23:00:39:563,,,,,,,,,,,,,,,,,,,,,,,,,,,,,
-4.049,0.13,8.006,0.211,-0.2,0.103,220513,2017-03-13 23:00:40:064,,,,,,,,,,,,,,,,,,,,,,,,,,,,,
-3.869,-0.133,5.858,0.661,-0.143,-1.004,221012,2017-03-13 23:00:40:563,,,,,,,,,,,,,,,,,,,,,,,,,,,,,
-4.317,0.111,6.646,-0.281,-0.433,1.176,221513,2017-03-13 23:00:41:064,,,,,,,,,,,,,,,,,,,,,,,,,,,,,
-4.428,-0.383,7.867,-0.059,-0.413,0.072,222013,2017-03-13 23:00:41:564,,,,,,,,,,,,,,,,,,,,,,,,,,,,,
-4.345,0.134,7.528,0.211,-0.015,0.114,222512,2017-03-13 23:00:42:063,,,,,,,,,,,,,,,,,,,,,,,,,,,,,
-4.629,-0.728,7.661,-0.147,-0.068,0.562,223012,2017-03-13 23:00:42:563,,,,,,,,,,,,,,,,,,,,,,,,,,,,,
-4.24,-0.469,7.814,0.362,-0.03,-0.004,223512,2017-03-13 23:00:43:063,,,,,,,,,,,,,,,,,,,,,,,,,,,,,
-4.498,0.006,6.999,0.244,0.156,0.355,224012,2017-03-13 23:00:43:563,,,,,,,,,,,,,,,,,,,,,,,,,,,,,
-4.632,0.887,7.103,-0.198,0.287,-0.127,224513,2017-03-13 23:00:44:064,,,,,,,,,,,,,,,,,,,,,,,,,,,,,
-5.037,-0.45,7.577,0.422,-0.097,-0.254,225013,2017-03-13 23:00:44:564,,,,,,,,,,,,,,,,,,,,,,,,,,,,,
-5.167,-0.869,6.885,-0.276,-0.117,-0.102,225513,2017-03-13 23:00:45:064,,,,,,,,,,,,,,,,,,,,,,,,,,,,,
-4.604,-0.262,7.014,-0.357,-0.37,-0.004,226013,2017-03-13 23:00:45:564,,,,,,,,,,,,,,,,,,,,,,,,,,,,,
-4.516,-0.566,7.756,0.03,-0.094,0.289,226513,2017-03-13 23:00:46:064,,,,,,,,,,,,,,,,,,,,,,,,,,,,,
-4.153,-0.112,6.953,-0.147,-0.034,-0.011,227013,2017-03-13 23:00:46:564,,,,,,,,,,,,,,,,,,,,,,,,,,,,,
-4.774,-0.176,8.024,-0.079,0.122,-0.047,227513,2017-03-13 23:00:47:064,,,,,,,,,,,,,,,,,,,,,,,,,,,,,
-3.535,-0.235,7.851,0.323,-0.329,0.029,228012,2017-03-13 23:00:47:563,,,,,,,,,,,,,,,,,,,,,,,,,,,,,
-4.139,-0.399,6.245,0.29,-0.139,0.481,228512,2017-03-13 23:00:48:063,,,,,,,,,,,,,,,,,,,,,,,,,,,,,
-4.343,-0.499,7.104,0.274,-0.022,0.019,229013,2017-03-13 23:00:48:564,,,,,,,,,,,,,,,,,,,,,,,,,,,,,
-4.16,0.336,8.368,-0.011,0.053,0.241,229513,2017-03-13 23:00:49:064,,,,,,,,,,,,,,,,,,,,,,,,,,,,,
-0.242,0.968,3.982,-0.163,-0.213,0.557,230013,2017-03-13 23:00:49:564,,,,,,,,,,,,,,,,,,,,,,,,,,,,,
-4.386,-0.674,7.451,0.791,0.043,-0.088,230512,2017-03-13 23:00:50:063,,,,,,,,,,,,,,,,,,,,,,,,,,,,,
-4.443,-0.778,7.664,0.471,-0.197,0.311,231012,2017-03-13 23:00:50:563,,,,,,,,,,,,,,,,,,,,,,,,,,,,,
-4.419,-0.082,7.742,0.667,-0.172,0.33,231513,2017-03-13 23:00:51:064,,,,,,,,,,,,,,,,,,,,,,,,,,,,,
-4.345,-0.408,7.851,0.619,0.045,-0.105,232013,2017-03-13 23:00:51:564,,,,,,,,,,,,,,,,,,,,,,,,,,,,,
-4.105,-1.027,6.798,0.246,-0.626,0.291,232513,2017-03-13 23:00:52:064,,,,,,,,,,,,,,,,,,,,,,,,,,,,,
-4.654,-0.368,9.063,-0.148,-0.219,0.438,233012,2017-03-13 23:00:52:563,,,,,,,,,,,,,,,,,,,,,,,,,,,,,
-5.009,-0.658,6.078,0.219,-0.37,-0.329,233513,2017-03-13 23:00:53:064,,,,,,,,,,,,,,,,,,,,,,,,,,,,,
-4.66,0.077,7.863,-0.05,0.104,0.131,234012,2017-03-13 23:00:53:563,,,,,,,,,,,,,,,,,,,,,,,,,,,,,
-4.32,-0.338,6.991,0.216,0.28,0.105,234512,2017-03-13 23:00:54:063,,,,,,,,,,,,,,,,,,,,,,,,,,,,,
-4.614,-0.21,7.694,-0.017,-0.087,-0.187,235012,2017-03-13 23:00:54:563,,,,,,,,,,,,,,,,,,,,,,,,,,,,,
-4.139,-0.256,7.576,0.201,0.291,-0.073,235512,2017-03-13 23:00:55:063,,,,,,,,,,,,,,,,,,,,,,,,,,,,,
-4.386,-0.689,7.924,-0.021,0.287,0.206,236013,2017-03-13 23:00:55:564,,,,,,,,,,,,,,,,,,,,,,,,,,,,,
-4.695,-0.459,7.761,0.008,-0.037,-0.444,236512,2017-03-13 23:00:56:063,,,,,,,,,,,,,,,,,,,,,,,,,,,,,
-3.856,-0.471,8.223,-0.38,-0.191,0.792,237013,2017-03-13 23:00:56:564,,,,,,,,,,,,,,,,,,,,,,,,,,,,,
-4.147,0.077,7.492,-0.032,-0.041,0.648,237512,2017-03-13 23:00:57:063,,,,,,,,,,,,,,,,,,,,,,,,,,,,,
-3.637,-0.212,6.171,0.092,-0.173,-0.041,238013,2017-03-13 23:00:57:564,,,,,,,,,,,,,,,,,,,,,,,,,,,,,
-5.135,-1.225,6.535,0.453,0.14,0.026,238513,2017-03-13 23:00:58:064,,,,,,,,,,,,,,,,,,,,,,,,,,,,,
-4.705,-0.333,7.269,0.094,0.16,0.093,239012,2017-03-13 23:00:58:563,,,,,,,,,,,,,,,,,,,,,,,,,,,,,
-4.884,-0.218,7.862,0.123,0.074,-0.313,239513,2017-03-13 23:00:59:064,,,,,,,,,,,,,,,,,,,,,,,,,,,,,
-3.715,-0.607,6.327,0.053,-0.143,-0.024,240013,2017-03-13 23:00:59:564,,,,,,,,,,,,,,,,,,,,,,,,,,,,,
-4.423,-0.728,7.032,0.228,-0.295,0.117,240512,2017-03-13 23:01:00:063,,,,,,,,,,,,,,,,,,,,,,,,,,,,,
-6.388,0.144,9.873,-1.937,-0.215,1.289,241013,2017-03-13 23:01:00:564,,,,,,,,,,,,,,,,,,,,,,,,,,,,,
-3.934,-0.776,7.594,1.273,-0.231,0.149,241513,2017-03-13 23:01:01:064,,,,,,,,,,,,,,,,,,,,,,,,,,,,,
-3.743,0.165,7.812,0.38,-0.256,-0.007,242012,2017-03-13 23:01:01:563,,,,,,,,,,,,,,,,,,,,,,,,,,,,,
-5.237,-1.16,7.998,0.07,-0.193,0.57,242513,2017-03-13 23:01:02:064,,,,,,,,,,,,,,,,,,,,,,,,,,,,,
-5.062,-0.448,7.008,0.364,-0.389,0.061,243013,2017-03-13 23:01:02:564,,,,,,,,,,,,,,,,,,,,,,,,,,,,,
-4.928,-0.894,8.301,-0.088,-0.309,0.73,243513,2017-03-13 23:01:03:064,,,,,,,,,,,,,,,,,,,,,,,,,,,,,
-4.698,-0.332,8.023,0.3,-0.309,0.168,244012,2017-03-13 23:01:03:563,,,,,,,,,,,,,,,,,,,,,,,,,,,,,
-5.41,-0.813,7.692,0.412,-0.149,0.267,244512,2017-03-13 23:01:04:063,,,,,,,,,,,,,,,,,,,,,,,,,,,,,
-4.588,-0.485,7.129,0.269,-0.023,-0.117,245013,2017-03-13 23:01:04:564,,,,,,,,,,,,,,,,,,,,,,,,,,,,,
-4.916,-0.254,8.37,0.023,-0.196,0.157,245512,2017-03-13 23:01:05:063,,,,,,,,,,,,,,,,,,,,,,,,,,,,,
-4.327,-0.244,6.488,0.241,-0.068,-0.311,246013,2017-03-13 23:01:05:564,,,,,,,,,,,,,,,,,,,,,,,,,,,,,
-3.248,0.288,7.284,0.295,0.104,0.035,246514,2017-03-13 23:01:06:065,,,,,,,,,,,,,,,,,,,,,,,,,,,,,
-3.972,-0.417,7.676,0.783,0.08,-0.172,247012,2017-03-13 23:01:06:563,,,,,,,,,,,,,,,,,,,,,,,,,,,,,
-4.573,-0.685,8.626,0.203,0.059,-0.024,247512,2017-03-13 23:01:07:063,,,,,,,,,,,,,,,,,,,,,,,,,,,,,
-4.096,-0.142,7.084,0.115,-0.046,-0.085,248013,2017-03-13 23:01:07:564,,,,,,,,,,,,,,,,,,,,,,,,,,,,,
-4.704,-0.004,6.744,0.278,-0.009,-0.368,248512,2017-03-13 23:01:08:063,,,,,,,,,,,,,,,,,,,,,,,,,,,,,
-4.75,-0.338,7.233,0.195,-0.18,-0.405,249013,2017-03-13 23:01:08:564,,,,,,,,,,,,,,,,,,,,,,,,,,,,,
-4.416,-0.844,6.884,0.218,-0.223,0.317,249513,2017-03-13 23:01:09:064,,,,,,,,,,,,,,,,,,,,,,,,,,,,,
-4.884,-0.177,7.315,0.067,-0.219,-0.422,250013,2017-03-13 23:01:09:564,,,,,,,,,,,,,,,,,,,,,,,,,,,,,
-4.089,-0.839,5.257,0.151,0.151,-0.259,250513,2017-03-13 23:01:10:064,,,,,,,,,,,,,,,,,,,,,,,,,,,,,
-4.419,-0.145,7.584,0.145,-0.02,0.196,251013,2017-03-13 23:01:10:564,,,,,,,,,,,,,,,,,,,,,,,,,,,,,
-4.145,0.232,7.623,-0.01,-0.121,-0.237,251513,2017-03-13 23:01:11:064,,,,,,,,,,,,,,,,,,,,,,,,,,,,,
-4.156,-0.182,6.86,-0.048,-0.181,-0.088,252013,2017-03-13 23:01:11:564,,,,,,,,,,,,,,,,,,,,,,,,,,,,,
-4.05,0.549,8.77,-0.369,0.071,0.423,252514,2017-03-13 23:01:12:065,,,,,,,,,,,,,,,,,,,,,,,,,,,,,
-4.148,0.19,7.292,-0.038,-0.244,0.031,253013,2017-03-13 23:01:12:564,,,,,,,,,,,,,,,,,,,,,,,,,,,,,
-3.997,0.454,8.807,0.355,-0.241,0.183,253513,2017-03-13 23:01:13:064,,,,,,,,,,,,,,,,,,,,,,,,,,,,,
-4.027,-0.125,8.118,0.036,-0.049,0.296,254013,2017-03-13 23:01:13:564,,,,,,,,,,,,,,,,,,,,,,,,,,,,,
-2.453,-1.08,9.352,0.248,0.171,3.953,254513,2017-03-13 23:01:14:064,,,,,,,,,,,,,,,,,,,,,,,,,,,,,
-4.357,-0.673,6.973,-0.248,-0.119,0.394,255013,2017-03-13 23:01:14:564,,,,,,,,,,,,,,,,,,,,,,,,,,,,,
-4.356,-0.316,7.889,-0.286,-0.371,-0.618,255512,2017-03-13 23:01:15:063,,,,,,,,,,,,,,,,,,,,,,,,,,,,,
-4.94,-0.748,6.975,0.027,-0.122,0.264,256013,2017-03-13 23:01:15:564,,,,,,,,,,,,,,,,,,,,,,,,,,,,,
-4.553,-1.416,6.234,-0.039,-0.031,0.465,256512,2017-03-13 23:01:16:063,,,,,,,,,,,,,,,,,,,,,,,,,,,,,
-4.264,-0.316,7.881,0.608,-0.287,0.06,257012,2017-03-13 23:01:16:563,,,,,,,,,,,,,,,,,,,,,,,,,,,,,
-3.838,-0.168,7.443,0.208,0.05,0.247,257513,2017-03-13 23:01:17:064,,,,,,,,,,,,,,,,,,,,,,,,,,,,,
-4.295,-0.796,7.838,-0.169,-0.462,0.349,258013,2017-03-13 23:01:17:564,,,,,,,,,,,,,,,,,,,,,,,,,,,,,
-3.66,0.004,5.55,0.446,0.106,0.223,258513,2017-03-13 23:01:18:064,,,,,,,,,,,,,,,,,,,,,,,,,,,,,
-4.315,-0.831,7.778,-0.203,-0.088,0.211,259013,2017-03-13 23:01:18:564,,,,,,,,,,,,,,,,,,,,,,,,,,,,,
-4.928,-0.255,8.628,0.034,-0.515,0.087,259512,2017-03-13 23:01:19:063,,,,,,,,,,,,,,,,,,,,,,,,,,,,,
-4.386,-0.329,8.587,0.147,0.352,0.607,260013,2017-03-13 23:01:19:564,,,,,,,,,,,,,,,,,,,,,,,,,,,,,
-4.458,-0.753,6.941,-0.133,-0.289,-0.124,260513,2017-03-13 23:01:20:064,,,,,,,,,,,,,,,,,,,,,,,,,,,,,
-4.778,-0.675,8.126,0.392,0.065,0.321,261012,2017-03-13 23:01:20:563,,,,,,,,,,,,,,,,,,,,,,,,,,,,,
-3.31,0.159,8.141,0.365,0.138,0.204,261513,2017-03-13 23:01:21:064,,,,,,,,,,,,,,,,,,,,,,,,,,,,,
-4.581,-1.651,6.596,0.388,-0.253,0.337,262013,2017-03-13 23:01:21:564,,,,,,,,,,,,,,,,,,,,,,,,,,,,,
-5.141,-0.521,7.042,-0.514,-0.248,1.014,262512,2017-03-13 23:01:22:063,,,,,,,,,,,,,,,,,,,,,,,,,,,,,
-4.777,-0.784,7.906,-2.98,-0.271,0.6,263013,2017-03-13 23:01:22:564,,,,,,,,,,,,,,,,,,,,,,,,,,,,,
-4.887,0.856,7.841,-1.067,0.561,-0.253,263512,2017-03-13 23:01:23:063,,,,,,,,,,,,,,,,,,,,,,,,,,,,,
-3.217,-0.059,6.702,0.428,-0.833,-0.219,264013,2017-03-13 23:01:23:564,,,,,,,,,,,,,,,,,,,,,,,,,,,,,
-4.362,-0.149,8.003,0.248,-0.279,-0.141,264513,2017-03-13 23:01:24:064,,,,,,,,,,,,,,,,,,,,,,,,,,,,,
-4.63,-0.449,8.246,-0.247,-0.055,0.392,265013,2017-03-13 23:01:24:564,,,,,,,,,,,,,,,,,,,,,,,,,,,,,
-4.745,-0.587,6.604,-0.308,-0.107,0.291,265512,2017-03-13 23:01:25:063,,,,,,,,,,,,,,,,,,,,,,,,,,,,,
-4.306,-0.468,7.326,-0.043,-0.242,0.158,266012,2017-03-13 23:01:25:563,,,,,,,,,,,,,,,,,,,,,,,,,,,,,
-4.226,-0.23,7.68,0.089,-0.283,0.049,266513,2017-03-13 23:01:26:064,,,,,,,,,,,,,,,,,,,,,,,,,,,,,
-4.319,-0.831,7.566,0.499,-0.428,0.087,267012,2017-03-13 23:01:26:563,,,,,,,,,,,,,,,,,,,,,,,,,,,,,
-4.617,-0.387,7.992,0.056,-0.459,-0.095,267513,2017-03-13 23:01:27:064,,,,,,,,,,,,,,,,,,,,,,,,,,,,,
-4.887,-1.917,7.389,0.429,-0.423,0.496,268014,2017-03-13 23:01:27:565,,,,,,,,,,,,,,,,,,,,,,,,,,,,,
-4.702,-1.316,7.111,0.528,-0.279,0.059,268513,2017-03-13 23:01:28:064,,,,,,,,,,,,,,,,,,,,,,,,,,,,,
-3.3,-1.182,7.747,0.777,-0.485,0.42,269013,2017-03-13 23:01:28:564,,,,,,,,,,,,,,,,,,,,,,,,,,,,,
-4.11,-0.674,7.737,-0.064,-0.659,1.077,269513,2017-03-13 23:01:29:064,,,,,,,,,,,,,,,,,,,,,,,,,,,,,
-3.321,-1.698,7.184,1.005,0.345,0.499,270013,2017-03-13 23:01:29:564,,,,,,,,,,,,,,,,,,,,,,,,,,,,,
-3.103,-0.815,6.667,-0.411,-0.356,1.334,270513,2017-03-13 23:01:30:064,,,,,,,,,,,,,,,,,,,,,,,,,,,,,
-4.598,-0.75,7.676,-0.361,-0.623,0.649,271012,2017-03-13 23:01:30:563,,,,,,,,,,,,,,,,,,,,,,,,,,,,,
-3.984,-0.274,6.666,0.304,0.117,-0.196,271513,2017-03-13 23:01:31:064,,,,,,,,,,,,,,,,,,,,,,,,,,,,,
-4.668,-0.963,6.83,-0.296,0.275,0.504,272013,2017-03-13 23:01:31:564,,,,,,,,,,,,,,,,,,,,,,,,,,,,,
-3.919,-0.967,7.498,-0.303,-0.267,0.391,272512,2017-03-13 23:01:32:063,,,,,,,,,,,,,,,,,,,,,,,,,,,,,
-3.625,-0.785,6.968,0.09,-0.341,0.269,273012,2017-03-13 23:01:32:563,,,,,,,,,,,,,,,,,,,,,,,,,,,,,
-2.63,0.063,6.134,0.438,0.14,0.197,273513,2017-03-13 23:01:33:064,,,,,,,,,,,,,,,,,,,,,,,,,,,,,
-3.181,-0.094,7.122,1.347,0.468,-0.329,274013,2017-03-13 23:01:33:564,,,,,,,,,,,,,,,,,,,,,,,,,,,,,
-4.13,-0.575,7.661,0.025,0.042,0.117,274513,2017-03-13 23:01:34:064,,,,,,,,,,,,,,,,,,,,,,,,,,,,,
-3.844,-0.146,7.622,0.3,0.025,0.439,275013,2017-03-13 23:01:34:564,,,,,,,,,,,,,,,,,,,,,,,,,,,,,
-3.527,-0.46,7.609,1.236,-0.137,0.631,275513,2017-03-13 23:01:35:064,,,,,,,,,,,,,,,,,,,,,,,,,,,,,
-3.466,0.587,6.995,0.078,-0.22,0.206,276012,2017-03-13 23:01:35:563,,,,,,,,,,,,,,,,,,,,,,,,,,,,,
-3.875,-0.384,7.897,0.64,0.231,-1.44,276513,2017-03-13 23:01:36:064,,,,,,,,,,,,,,,,,,,,,,,,,,,,,
-4.104,-0.713,6.945,-0.132,0.114,0.28,277013,2017-03-13 23:01:36:564,,,,,,,,,,,,,,,,,,,,,,,,,,,,,
-2.563,-0.372,7.192,0.508,0.002,0.688,277513,2017-03-13 23:01:37:064,,,,,,,,,,,,,,,,,,,,,,,,,,,,,
-3.26,-1.009,7.141,2.234,0.607,1.111,278013,2017-03-13 23:01:37:564,,,,,,,,,,,,,,,,,,,,,,,,,,,,,
-3.892,-0.741,9.095,1.904,0.661,0.553,278513,2017-03-13 23:01:38:064,,,,,,,,,,,,,,,,,,,,,,,,,,,,,
-3.9,-0.624,7.337,0.954,-0.124,0.583,279012,2017-03-13 23:01:38:563,,,,,,,,,,,,,,,,,,,,,,,,,,,,,
-4.035,-0.194,7.45,0.103,-0.052,-0.016,279513,2017-03-13 23:01:39:064,,,,,,,,,,,,,,,,,,,,,,,,,,,,,
-3.48,0.095,9.079,0.2,-0.08,0.359,280013,2017-03-13 23:01:39:564,,,,,,,,,,,,,,,,,,,,,,,,,,,,,
-2.211,-0.408,7.907,0.658,-0.372,0.672,280512,2017-03-13 23:01:40:063,,,,,,,,,,,,,,,,,,,,,,,,,,,,,
-2.632,-0.602,8.364,1.224,-0.129,0.805,281013,2017-03-13 23:01:40:564,,,,,,,,,,,,,,,,,,,,,,,,,,,,,
-1.696,-0.745,7.586,1.21,0.194,0.442,281512,2017-03-13 23:01:41:063,,,,,,,,,,,,,,,,,,,,,,,,,,,,,
-1.546,-0.449,9.399,0.788,0.066,0.837,282013,2017-03-13 23:01:41:564,,,,,,,,,,,,,,,,,,,,,,,,,,,,,
-1.958,-0.534,9.052,2.65,0.218,1.128,282512,2017-03-13 23:01:42:063,,,,,,,,,,,,,,,,,,,,,,,,,,,,,
-1.658,-0.5,8.901,1.832,-0.134,0.778,283013,2017-03-13 23:01:42:564,,,,,,,,,,,,,,,,,,,,,,,,,,,,,
-1.726,-0.097,9.288,1.934,0.249,1.035,283513,2017-03-13 23:01:43:064,,,,,,,,,,,,,,,,,,,,,,,,,,,,,
-0.429,-0.058,10.373,1.834,0.278,0.973,284013,2017-03-13 23:01:43:564,,,,,,,,,,,,,,,,,,,,,,,,,,,,,
-2.181,0.435,8.867,-0.149,0.141,0.067,284513,2017-03-13 23:01:44:064,,,,,,,,,,,,,,,,,,,,,,,,,,,,,
-3.329,-0.931,8.278,-0.46,-0.106,-0.303,285012,2017-03-13 23:01:44:563,,,,,,,,,,,,,,,,,,,,,,,,,,,,,
-3.65,1.131,7.433,-1.026,0.594,-0.852,285513,2017-03-13 23:01:45:064,,,,,,,,,,,,,,,,,,,,,,,,,,,,,
-4.701,0.865,8.329,-1.726,0.645,-1.247,286013,2017-03-13 23:01:45:564,,,,,,,,,,,,,,,,,,,,,,,,,,,,,
-4.086,1.421,6.227,-0.929,0.886,-0.828,286512,2017-03-13 23:01:46:063,,,,,,,,,,,,,,,,,,,,,,,,,,,,,
-4.293,2.316,7.396,-0.573,1.038,-0.554,287013,2017-03-13 23:01:46:564,,,,,,,,,,,,,,,,,,,,,,,,,,,,,
-4.293,2.267,7.488,-0.565,1.013,-0.016,287513,2017-03-13 23:01:47:064,,,,,,,,,,,,,,,,,,,,,,,,,,,,,
-4.093,2.931,7.789,0.581,1.978,0.181,288013,2017-03-13 23:01:47:564,,,,,,,,,,,,,,,,,,,,,,,,,,,,,
-5.488,2.365,6.941,-0.611,0.881,-1.571,288513,2017-03-13 23:01:48:064,,,,,,,,,,,,,,,,,,,,,,,,,,,,,
-6.634,0.98,6.338,-1.214,0.359,-0.479,289013,2017-03-13 23:01:48:564,,,,,,,,,,,,,,,,,,,,,,,,,,,,,
-6.305,-0.764,6.431,-0.943,-1.198,-0.243,289513,2017-03-13 23:01:49:064,,,,,,,,,,,,,,,,,,,,,,,,,,,,,
-6.514,-0.873,7.172,-0.694,-0.981,-0.373,290013,2017-03-13 23:01:49:564,,,,,,,,,,,,,,,,,,,,,,,,,,,,,
-4.357,0.027,8.374,1.046,-1.036,0.336,290513,2017-03-13 23:01:50:064,,,,,,,,,,,,,,,,,,,,,,,,,,,,,
-5.545,0.202,6.913,0.294,-0.818,-0.263,291012,2017-03-13 23:01:50:563,,,,,,,,,,,,,,,,,,,,,,,,,,,,,
-4.032,-0.131,7.364,-0.619,-0.999,-0.121,291513,2017-03-13 23:01:51:064,,,,,,,,,,,,,,,,,,,,,,,,,,,,,
-5.598,-0.201,5.86,-0.367,-0.974,-0.033,292013,2017-03-13 23:01:51:564,,,,,,,,,,,,,,,,,,,,,,,,,,,,,
-6.169,-0.888,6.362,0.007,-0.646,-0.161,292513,2017-03-13 23:01:52:064,,,,,,,,,,,,,,,,,,,,,,,,,,,,,
-5.662,-0.987,7.305,-0.159,-0.473,0.14,293012,2017-03-13 23:01:52:563,,,,,,,,,,,,,,,,,,,,,,,,,,,,,
-4.498,-1.753,7.193,0.158,-1.168,-0.153,293513,2017-03-13 23:01:53:064,,,,,,,,,,,,,,,,,,,,,,,,,,,,,
-4.697,-1.005,7.157,0.046,-1.075,-0.291,294012,2017-03-13 23:01:53:563,,,,,,,,,,,,,,,,,,,,,,,,,,,,,
-5.986,-0.942,6.703,0.662,-0.356,0.487,294513,2017-03-13 23:01:54:064,,,,,,,,,,,,,,,,,,,,,,,,,,,,,
-5.421,-0.589,7.927,0.465,-0.626,-0.2,295013,2017-03-13 23:01:54:564,,,,,,,,,,,,,,,,,,,,,,,,,,,,,
-5.172,-0.548,7.452,-0.098,-0.258,0.058,295513,2017-03-13 23:01:55:064,,,,,,,,,,,,,,,,,,,,,,,,,,,,,
-4.465,-0.642,7.44,0.568,-0.475,0.641,296013,2017-03-13 23:01:55:564,,,,,,,,,,,,,,,,,,,,,,,,,,,,,
-5.085,-1.306,6.687,0.799,-0.471,0.256,296513,2017-03-13 23:01:56:064,,,,,,,,,,,,,,,,,,,,,,,,,,,,,
-4.514,-0.735,6.714,0.202,-0.519,0.335,297012,2017-03-13 23:01:56:563,,,,,,,,,,,,,,,,,,,,,,,,,,,,,
-5.147,-0.337,9.694,-0.363,-0.365,0.137,297513,2017-03-13 23:01:57:064,,,,,,,,,,,,,,,,,,,,,,,,,,,,,
-4.998,0.003,8.612,0.662,-0.052,0.832,298012,2017-03-13 23:01:57:563,,,,,,,,,,,,,,,,,,,,,,,,,,,,,
-5.628,-0.527,9.168,0.751,-0.157,0.238,298512,2017-03-13 23:01:58:063,,,,,,,,,,,,,,,,,,,,,,,,,,,,,
-4.328,-0.565,8.496,0.396,-0.065,0.464,299012,2017-03-13 23:01:58:563,,,,,,,,,,,,,,,,,,,,,,,,,,,,,
-4.625,-1.08,7.932,0.391,-0.279,0.189,299512,2017-03-13 23:01:59:063,,,,,,,,,,,,,,,,,,,,,,,,,,,,,
-4.02,-0.467,8.912,0.575,-0.426,0.128,300013,2017-03-13 23:01:59:564,,,,,,,,,,,,,,,,,,,,,,,,,,,,,
-4.568,-1.089,7.737,-0.011,-0.209,0.134,300513,2017-03-13 23:02:00:064,,,,,,,,,,,,,,,,,,,,,,,,,,,,,
-4.395,-0.27,6.444,0.196,-0.119,0.394,301013,2017-03-13 23:02:00:564,,,,,,,,,,,,,,,,,,,,,,,,,,,,,
-4.474,-0.429,8.686,0.751,-0.073,0.254,301513,2017-03-13 23:02:01:064,,,,,,,,,,,,,,,,,,,,,,,,,,,,,
-4.12,-1.308,6.841,0.891,-0.102,0.773,302012,2017-03-13 23:02:01:563,,,,,,,,,,,,,,,,,,,,,,,,,,,,,
-4.029,-1.062,7.682,0.296,0.005,0.379,302513,2017-03-13 23:02:02:064,,,,,,,,,,,,,,,,,,,,,,,,,,,,,
-4.147,-0.01,7.007,0.57,-0.177,0.263,303013,2017-03-13 23:02:02:564,,,,,,,,,,,,,,,,,,,,,,,,,,,,,
-3.968,-0.143,8.736,0.334,-0.198,0.423,303513,2017-03-13 23:02:03:064,,,,,,,,,,,,,,,,,,,,,,,,,,,,,
-4.306,-0.433,7.98,0.934,-0.023,-0.035,304013,2017-03-13 23:02:03:564,,,,,,,,,,,,,,,,,,,,,,,,,,,,,
-4.062,-0.137,8.353,0.414,-0.204,0.448,304512,2017-03-13 23:02:04:063,,,,,,,,,,,,,,,,,,,,,,,,,,,,,
-3.962,-0.614,8.092,0.605,-0.057,0.184,305013,2017-03-13 23:02:04:564,,,,,,,,,,,,,,,,,,,,,,,,,,,,,
-3.563,-0.138,8.518,0.686,-0.191,0.364,305513,2017-03-13 23:02:05:064,,,,,,,,,,,,,,,,,,,,,,,,,,,,,
-2.636,0.639,7.937,-0.428,0.027,0.231,306012,2017-03-13 23:02:05:563,,,,,,,,,,,,,,,,,,,,,,,,,,,,,
-7.858,-0.911,15.27,-1.308,-0.253,2.202,306513,2017-03-13 23:02:06:064,,,,,,,,,,,,,,,,,,,,,,,,,,,,,
-4.589,-1.851,6.796,-0.24,-0.501,0.169,307013,2017-03-13 23:02:06:564,,,,,,,,,,,,,,,,,,,,,,,,,,,,,
-4.971,-0.612,7.589,0.809,0.127,0.398,307513,2017-03-13 23:02:07:064,,,,,,,,,,,,,,,,,,,,,,,,,,,,,
-4.047,-0.106,6.673,0.358,0.007,0.259,308013,2017-03-13 23:02:07:564,,,,,,,,,,,,,,,,,,,,,,,,,,,,,
-4.198,-0.39,8.223,0.368,0.033,-0.032,308513,2017-03-13 23:02:08:064,,,,,,,,,,,,,,,,,,,,,,,,,,,,,
-3.968,-0.618,5.987,0.392,0.112,0.559,309012,2017-03-13 23:02:08:563,,,,,,,,,,,,,,,,,,,,,,,,,,,,,
-3.824,-0.978,6.321,0.41,0.076,0.484,309513,2017-03-13 23:02:09:064,,,,,,,,,,,,,,,,,,,,,,,,,,,,,
-3.569,0.137,4.622,0.314,-0.02,0.492,310013,2017-03-13 23:02:09:564,,,,,,,,,,,,,,,,,,,,,,,,,,,,,
-3.991,-0.365,7.784,-0.025,-0.144,0.531,310512,2017-03-13 23:02:10:063,,,,,,,,,,,,,,,,,,,,,,,,,,,,,
-4.168,-0.693,7.491,0.202,0.008,-0.009,311012,2017-03-13 23:02:10:563,,,,,,,,,,,,,,,,,,,,,,,,,,,,,
-4.397,0.176,7.187,-0.095,-0.345,-0.786,311513,2017-03-13 23:02:11:064,,,,,,,,,,,,,,,,,,,,,,,,,,,,,
-4.084,0.362,9.168,0.454,0.149,-0.75,312013,2017-03-13 23:02:11:564,,,,,,,,,,,,,,,,,,,,,,,,,,,,,
-2.829,0.853,8.039,0.586,-0.576,-0.604,312514,2017-03-13 23:02:12:065,,,,,,,,,,,,,,,,,,,,,,,,,,,,,
-3.623,-0.073,7.778,0.233,-0.116,0.374,313012,2017-03-13 23:02:12:563,,,,,,,,,,,,,,,,,,,,,,,,,,,,,
-3.814,-0.788,8.046,0.468,-0.276,0.71,313513,2017-03-13 23:02:13:064,,,,,,,,,,,,,,,,,,,,,,,,,,,,,
-3.434,-0.017,8.104,-0.011,-0.336,-0.196,314012,2017-03-13 23:02:13:563,,,,,,,,,,,,,,,,,,,,,,,,,,,,,
-4.074,-1.161,7.51,0.003,-0.151,0.275,314513,2017-03-13 23:02:14:064,,,,,,,,,,,,,,,,,,,,,,,,,,,,,
-4.218,-0.56,8.043,0.093,0.099,0.132,315012,2017-03-13 23:02:14:563,,,,,,,,,,,,,,,,,,,,,,,,,,,,,
-3.956,-0.352,8.459,0.535,-0.053,0.212,315512,2017-03-13 23:02:15:063,,,,,,,,,,,,,,,,,,,,,,,,,,,,,
-4.094,-0.777,8.487,0.053,0.058,-0.12,316013,2017-03-13 23:02:15:564,,,,,,,,,,,,,,,,,,,,,,,,,,,,,
-3.626,-0.465,8.573,-0.845,-0.255,0.033,316512,2017-03-13 23:02:16:063,,,,,,,,,,,,,,,,,,,,,,,,,,,,,
-3.819,-0.387,4.837,-0.146,0.18,0.571,317013,2017-03-13 23:02:16:564,,,,,,,,,,,,,,,,,,,,,,,,,,,,,
-4.138,-0.837,7.171,-0.284,-0.051,0.137,317512,2017-03-13 23:02:17:063,,,,,,,,,,,,,,,,,,,,,,,,,,,,,
-4.644,-0.826,7.934,0.701,0.278,-0.689,318013,2017-03-13 23:02:17:564,,,,,,,,,,,,,,,,,,,,,,,,,,,,,
-3.851,-0.383,7.925,-0.047,-0.193,-0.279,318513,2017-03-13 23:02:18:064,,,,,,,,,,,,,,,,,,,,,,,,,,,,,
-4.713,-0.614,9.12,-0.031,-0.105,-0.001,319012,2017-03-13 23:02:18:563,,,,,,,,,,,,,,,,,,,,,,,,,,,,,
-4.002,-0.121,7.595,-0.181,-0.191,-0.435,319513,2017-03-13 23:02:19:064,,,,,,,,,,,,,,,,,,,,,,,,,,,,,
-4.299,-0.709,7.01,0.187,-0.021,0.27,320013,2017-03-13 23:02:19:564,,,,,,,,,,,,,,,,,,,,,,,,,,,,,
-4.068,-0.669,7.383,0.344,0.002,0.109,320513,2017-03-13 23:02:20:064,,,,,,,,,,,,,,,,,,,,,,,,,,,,,
-3.489,-0.493,7.504,0.188,-0.081,-0.398,321012,2017-03-13 23:02:20:563,,,,,,,,,,,,,,,,,,,,,,,,,,,,,
-4.194,-0.482,7.699,0.217,-0.143,-0.329,321512,2017-03-13 23:02:21:063,,,,,,,,,,,,,,,,,,,,,,,,,,,,,
-4.362,-0.577,6.572,0.213,0.236,0.389,322013,2017-03-13 23:02:21:564,,,,,,,,,,,,,,,,,,,,,,,,,,,,,
-4.808,-0.067,7.42,0.077,-0.174,-0.186,322513,2017-03-13 23:02:22:064,,,,,,,,,,,,,,,,,,,,,,,,,,,,,
-3.954,-0.374,7.402,0.329,0.052,-0.234,323013,2017-03-13 23:02:22:564,,,,,,,,,,,,,,,,,,,,,,,,,,,,,
-4.112,-0.639,7.963,-0.322,-0.19,0.414,323513,2017-03-13 23:02:23:064,,,,,,,,,,,,,,,,,,,,,,,,,,,,,
-3.733,-0.173,7.006,0.383,-0.073,-0.048,324012,2017-03-13 23:02:23:563,,,,,,,,,,,,,,,,,,,,,,,,,,,,,
-3.898,-0.081,7.597,0.249,0.077,0.289,324513,2017-03-13 23:02:24:064,,,,,,,,,,,,,,,,,,,,,,,,,,,,,
-3.489,-0.401,7.627,0.393,-0.085,0.063,325012,2017-03-13 23:02:24:563,,,,,,,,,,,,,,,,,,,,,,,,,,,,,
-4.058,-0.194,7.376,-0.603,-0.15,1.004,325512,2017-03-13 23:02:25:063,,,,,,,,,,,,,,,,,,,,,,,,,,,,,
-3.253,0.068,8.351,-0.586,-0.588,-0.33,326013,2017-03-13 23:02:25:564,,,,,,,,,,,,,,,,,,,,,,,,,,,,,
-4.069,-0.508,7.419,-0.099,-0.366,-0.014,326513,2017-03-13 23:02:26:064,,,,,,,,,,,,,,,,,,,,,,,,,,,,,
-4.18,-1.531,7.751,-0.336,-0.353,0.55,327012,2017-03-13 23:02:26:563,,,,,,,,,,,,,,,,,,,,,,,,,,,,,
-3.578,-0.323,7.56,-0.054,-0.12,0.334,327513,2017-03-13 23:02:27:064,,,,,,,,,,,,,,,,,,,,,,,,,,,,,
-3.603,-0.32,6.994,0.507,-0.183,-0.032,328012,2017-03-13 23:02:27:563,,,,,,,,,,,,,,,,,,,,,,,,,,,,,
-4.161,0.254,8.317,0.074,-0.417,0.057,328513,2017-03-13 23:02:28:064,,,,,,,,,,,,,,,,,,,,,,,,,,,,,
-3.874,-0.295,6.578,0.185,-0.189,0.121,329012,2017-03-13 23:02:28:563,,,,,,,,,,,,,,,,,,,,,,,,,,,,,
-3.966,-0.345,6.947,0.26,-0.042,-0.009,329513,2017-03-13 23:02:29:064,,,,,,,,,,,,,,,,,,,,,,,,,,,,,
-4.312,-0.238,6.953,0.249,-0.158,0.293,330013,2017-03-13 23:02:29:564,,,,,,,,,,,,,,,,,,,,,,,,,,,,,
-4.202,-0.467,6.69,0.125,-0.078,0.036,330513,2017-03-13 23:02:30:064,,,,,,,,,,,,,,,,,,,,,,,,,,,,,
-4.199,0.457,8.417,0.207,-0.125,-0.073,331013,2017-03-13 23:02:30:564,,,,,,,,,,,,,,,,,,,,,,,,,,,,,
-4.814,-0.624,6.833,0.194,0.221,0.14,331513,2017-03-13 23:02:31:064,,,,,,,,,,,,,,,,,,,,,,,,,,,,,
-4.65,0.052,8.022,0.325,0.031,0.185,332013,2017-03-13 23:02:31:564,,,,,,,,,,,,,,,,,,,,,,,,,,,,,
-4.267,-0.287,8.317,0.579,0.052,0.339,332513,2017-03-13 23:02:32:064,,,,,,,,,,,,,,,,,,,,,,,,,,,,,
-4.564,0.552,7.23,0.199,0.414,0.462,333013,2017-03-13 23:02:32:564,,,,,,,,,,,,,,,,,,,,,,,,,,,,,
-3.674,-0.328,7.638,0.231,-0.546,-0.349,333513,2017-03-13 23:02:33:064,,,,,,,,,,,,,,,,,,,,,,,,,,,,,
-3.37,0.405,7.51,-0.604,-0.036,0.807,334013,2017-03-13 23:02:33:564,,,,,,,,,,,,,,,,,,,,,,,,,,,,,
-3.96,0.199,7.53,0.584,0.315,0.318,334513,2017-03-13 23:02:34:064,,,,,,,,,,,,,,,,,,,,,,,,,,,,,
-3.907,-0.339,7.233,0.606,0.158,0.252,335012,2017-03-13 23:02:34:563,,,,,,,,,,,,,,,,,,,,,,,,,,,,,
-3.972,-0.022,7.227,0.197,0.056,0.533,335513,2017-03-13 23:02:35:064,,,,,,,,,,,,,,,,,,,,,,,,,,,,,
-3.404,-0.258,7.506,0.712,-0.12,0.307,336013,2017-03-13 23:02:35:564,,,,,,,,,,,,,,,,,,,,,,,,,,,,,
-2.889,-0.153,9.095,0.728,-0.058,0.363,336512,2017-03-13 23:02:36:063,,,,,,,,,,,,,,,,,,,,,,,,,,,,,
-2.351,-0.356,8.576,1.273,-0.52,1.09,337013,2017-03-13 23:02:36:564,,,,,,,,,,,,,,,,,,,,,,,,,,,,,
-2.75,-0.828,8.079,1.644,-0.3,1.387,337513,2017-03-13 23:02:37:064,,,,,,,,,,,,,,,,,,,,,,,,,,,,,
-1.864,-0.215,9.448,1.289,0.032,0.788,338012,2017-03-13 23:02:37:563,,,,,,,,,,,,,,,,,,,,,,,,,,,,,
-1.371,-0.344,8.668,2.253,-0.101,0.914,338513,2017-03-13 23:02:38:064,,,,,,,,,,,,,,,,,,,,,,,,,,,,,
-2.132,-0.358,9.693,1.51,-0.224,1.134,339012,2017-03-13 23:02:38:563,,,,,,,,,,,,,,,,,,,,,,,,,,,,,
-1.628,-0.98,8.518,1.215,-0.177,0.698,339513,2017-03-13 23:02:39:064,,,,,,,,,,,,,,,,,,,,,,,,,,,,,
-2.901,-0.544,8.563,0.71,-0.256,0.18,340013,2017-03-13 23:02:39:564,,,,,,,,,,,,,,,,,,,,,,,,,,,,,
-1.964,-0.875,7.62,1.018,0.051,0.586,340513,2017-03-13 23:02:40:064,,,,,,,,,,,,,,,,,,,,,,,,,,,,,
-1.499,-0.189,9.035,1.604,0.078,0.525,341014,2017-03-13 23:02:40:565,,,,,,,,,,,,,,,,,,,,,,,,,,,,,
-3.783,0.233,7.608,-0.547,0.559,0.088,341513,2017-03-13 23:02:41:064,,,,,,,,,,,,,,,,,,,,,,,,,,,,,
-3.472,1.285,7.728,-1.19,0.993,-0.146,342012,2017-03-13 23:02:41:563,,,,,,,,,,,,,,,,,,,,,,,,,,,,,
-4.095,1.892,8.074,0.074,1.148,0.096,342513,2017-03-13 23:02:42:064,,,,,,,,,,,,,,,,,,,,,,,,,,,,,
-4.735,2.189,8.931,-0.688,1.717,-0.402,343013,2017-03-13 23:02:42:564,,,,,,,,,,,,,,,,,,,,,,,,,,,,,
-4.983,2.388,7.58,-1.671,0.943,-0.755,343513,2017-03-13 23:02:43:064,,,,,,,,,,,,,,,,,,,,,,,,,,,,,
-5.123,2.327,7.416,-1.238,1.616,-0.525,344013,2017-03-13 23:02:43:564,,,,,,,,,,,,,,,,,,,,,,,,,,,,,
-5.655,1.782,6.456,-1.422,0.635,-0.509,344512,2017-03-13 23:02:44:063,,,,,,,,,,,,,,,,,,,,,,,,,,,,,
-5.185,0.77,5.634,-0.896,-0.855,-0.429,345013,2017-03-13 23:02:44:564,,,,,,,,,,,,,,,,,,,,,,,,,,,,,
-8.071,-0.534,4.513,-1.155,-0.933,0.011,345513,2017-03-13 23:02:45:064,,,,,,,,,,,,,,,,,,,,,,,,,,,,,
-5.109,0.814,6.143,-0.051,-0.608,-0.002,346013,2017-03-13 23:02:45:564,,,,,,,,,,,,,,,,,,,,,,,,,,,,,
-2.425,-0.412,7.02,-0.471,-0.985,-0.21,346513,2017-03-13 23:02:46:064,,,,,,,,,,,,,,,,,,,,,,,,,,,,,
-2.214,0.211,5.004,0.71,-1.542,0.38,347013,2017-03-13 23:02:46:564,,,,,,,,,,,,,,,,,,,,,,,,,,,,,
-4.936,-0.48,6.496,-0.109,-0.87,-0.905,347513,2017-03-13 23:02:47:064,,,,,,,,,,,,,,,,,,,,,,,,,,,,,
-2.576,1.167,7.609,0.136,-0.939,-0.076,348012,2017-03-13 23:02:47:563,,,,,,,,,,,,,,,,,,,,,,,,,,,,,
-4.293,0.586,6.426,-0.117,-0.335,0.066,348513,2017-03-13 23:02:48:064,,,,,,,,,,,,,,,,,,,,,,,,,,,,,
-5.692,0.204,7.747,-0.171,-0.35,0.24,349013,2017-03-13 23:02:48:564,,,,,,,,,,,,,,,,,,,,,,,,,,,,,
-5.272,-0.741,6.476,-0.558,-0.713,0.874,349512,2017-03-13 23:02:49:063,,,,,,,,,,,,,,,,,,,,,,,,,,,,,
-4.144,-0.596,9.078,0.21,-1.118,0.643,350013,2017-03-13 23:02:49:564,,,,,,,,,,,,,,,,,,,,,,,,,,,,,
-4.754,-1.003,6.002,-0.04,-1.224,0.303,350512,2017-03-13 23:02:50:063,,,,,,,,,,,,,,,,,,,,,,,,,,,,,
-5.069,0.173,8.92,-0.192,-0.301,0.564,351013,2017-03-13 23:02:50:564,,,,,,,,,,,,,,,,,,,,,,,,,,,,,
-5.731,-0.316,8.596,0.199,-0.101,-0.148,351512,2017-03-13 23:02:51:063,,,,,,,,,,,,,,,,,,,,,,,,,,,,,
-5.49,-0.686,7.261,-0.438,-0.143,0.354,352013,2017-03-13 23:02:51:564,,,,,,,,,,,,,,,,,,,,,,,,,,,,,
-5.128,-0.542,7.683,-0.274,-0.574,0.636,352513,2017-03-13 23:02:52:064,,,,,,,,,,,,,,,,,,,,,,,,,,,,,
-5.182,-0.488,8.213,0.383,-0.637,0.303,353013,2017-03-13 23:02:52:564,,,,,,,,,,,,,,,,,,,,,,,,,,,,,
-4.885,-0.608,6.934,0.89,-0.844,0.616,353513,2017-03-13 23:02:53:064,,,,,,,,,,,,,,,,,,,,,,,,,,,,,
-4.238,-0.541,8.655,0.711,-0.42,0.131,354012,2017-03-13 23:02:53:563,,,,,,,,,,,,,,,,,,,,,,,,,,,,,
-5.713,-0.859,7.823,0.442,-0.127,0.381,354513,2017-03-13 23:02:54:064,,,,,,,,,,,,,,,,,,,,,,,,,,,,,
-4.397,-0.876,7.194,0.202,-0.677,0.442,355012,2017-03-13 23:02:54:563,,,,,,,,,,,,,,,,,,,,,,,,,,,,,
-4.698,-0.321,7.552,0.406,-0.532,0.484,355513,2017-03-13 23:02:55:064,,,,,,,,,,,,,,,,,,,,,,,,,,,,,
-3.607,0.214,8.03,0.663,-0.401,0.368,356013,2017-03-13 23:02:55:564,,,,,,,,,,,,,,,,,,,,,,,,,,,,,
-4.858,-1.065,7.498,0.808,-0.262,-0.104,356513,2017-03-13 23:02:56:064,,,,,,,,,,,,,,,,,,,,,,,,,,,,,
-3.529,-0.465,8.053,1.004,-0.2,-0.416,357013,2017-03-13 23:02:56:564,,,,,,,,,,,,,,,,,,,,,,,,,,,,,
-3.106,1.244,8.169,0.57,-0.282,0.555,357513,2017-03-13 23:02:57:064,,,,,,,,,,,,,,,,,,,,,,,,,,,,,
-4.282,-0.705,9.818,0.698,-0.204,0.365,358012,2017-03-13 23:02:57:563,,,,,,,,,,,,,,,,,,,,,,,,,,,,,
-4.447,1.556,9.548,0.496,-0.191,0.186,358513,2017-03-13 23:02:58:064,,,,,,,,,,,,,,,,,,,,,,,,,,,,,
-3.511,-0.375,7.891,0.527,0.265,0.679,359013,2017-03-13 23:02:58:564,,,,,,,,,,,,,,,,,,,,,,,,,,,,,
-4.498,0.75,7.528,0.165,0.2,0.164,359513,2017-03-13 23:02:59:064,,,,,,,,,,,,,,,,,,,,,,,,,,,,,
-3.97,-0.539,8.784,0.271,-0.308,0.715,360013,2017-03-13 23:02:59:564,,,,,,,,,,,,,,,,,,,,,,,,,,,,,
-5.086,-0.524,7.604,0.555,-0.413,-0.226,360512,2017-03-13 23:03:00:063,,,,,,,,,,,,,,,,,,,,,,,,,,,,,
-4.467,-0.284,6.4,0.213,-0.005,0.152,361012,2017-03-13 23:03:00:563,,,,,,,,,,,,,,,,,,,,,,,,,,,,,
-3.749,-0.222,7.199,0.442,0.043,-0.74,361513,2017-03-13 23:03:01:064,,,,,,,,,,,,,,,,,,,,,,,,,,,,,
-5.199,-0.981,8.773,-1.53,-0.495,0.916,362013,2017-03-13 23:03:01:564,,,,,,,,,,,,,,,,,,,,,,,,,,,,,
-5.706,-0.822,7.31,-0.815,-0.306,0.787,362512,2017-03-13 23:03:02:063,,,,,,,,,,,,,,,,,,,,,,,,,,,,,
-4.587,0.141,7.671,-0.436,-0.555,0.11,363012,2017-03-13 23:03:02:563,,,,,,,,,,,,,,,,,,,,,,,,,,,,,
-1.998,0.162,6.798,0.992,0.282,0.575,363513,2017-03-13 23:03:03:064,,,,,,,,,,,,,,,,,,,,,,,,,,,,,
-3.959,1.392,7.556,0.322,0.205,0.482,364012,2017-03-13 23:03:03:563,,,,,,,,,,,,,,,,,,,,,,,,,,,,,
-4.312,-0.304,8.62,0.624,0.134,0.161,364512,2017-03-13 23:03:04:063,,,,,,,,,,,,,,,,,,,,,,,,,,,,,
-4.661,-0.142,6.452,0.684,-0.079,0.117,365013,2017-03-13 23:03:04:564,,,,,,,,,,,,,,,,,,,,,,,,,,,,,
-4.339,-1.069,6.096,0.53,-0.147,0.248,365513,2017-03-13 23:03:05:064,,,,,,,,,,,,,,,,,,,,,,,,,,,,,
-3.789,0.1,6.815,-0.183,-0.37,0.396,366012,2017-03-13 23:03:05:563,,,,,,,,,,,,,,,,,,,,,,,,,,,,,
-4.307,-0.474,8.164,0.377,-0.184,0.184,366513,2017-03-13 23:03:06:064,,,,,,,,,,,,,,,,,,,,,,,,,,,,,
-5.069,0.16,8.061,-0.898,-0.802,-0.197,367012,2017-03-13 23:03:06:563,,,,,,,,,,,,,,,,,,,,,,,,,,,,,
-5.228,0.975,7.207,0.102,-0.129,0.069,367513,2017-03-13 23:03:07:064,,,,,,,,,,,,,,,,,,,,,,,,,,,,,
-4.634,-0.892,9.161,0.33,0.129,-0.441,368013,2017-03-13 23:03:07:564,,,,,,,,,,,,,,,,,,,,,,,,,,,,,
-4.867,0.404,7.724,0.277,-0.198,-0.407,368512,2017-03-13 23:03:08:063,,,,,,,,,,,,,,,,,,,,,,,,,,,,,
-5.574,0.692,7.105,-0.523,-0.122,0.088,369013,2017-03-13 23:03:08:564,,,,,,,,,,,,,,,,,,,,,,,,,,,,,
-4.699,-1.058,6.898,0.125,-0.42,0.115,369513,2017-03-13 23:03:09:064,,,,,,,,,,,,,,,,,,,,,,,,,,,,,
-5.326,-0.163,8.033,-0.166,-0.346,-0.048,370012,2017-03-13 23:03:09:563,,,,,,,,,,,,,,,,,,,,,,,,,,,,,
-5.35,0.475,7.804,0.307,-0.463,-0.936,370513,2017-03-13 23:03:10:064,,,,,,,,,,,,,,,,,,,,,,,,,,,,,
-5.02,1.103,7.72,-0.263,-0.448,-0.246,371013,2017-03-13 23:03:10:564,,,,,,,,,,,,,,,,,,,,,,,,,,,,,
-4.01,0.47,7.238,1.103,0.219,0.291,371513,2017-03-13 23:03:11:064,,,,,,,,,,,,,,,,,,,,,,,,,,,,,
-4.668,-0.622,8.555,0.627,-0.199,0.097,372013,2017-03-13 23:03:11:564,,,,,,,,,,,,,,,,,,,,,,,,,,,,,
-4.045,-1.045,7.004,-0.094,-0.382,0.117,372513,2017-03-13 23:03:12:064,,,,,,,,,,,,,,,,,,,,,,,,,,,,,
-5.461,-0.418,7.202,0.377,-0.006,0.198,373013,2017-03-13 23:03:12:564,,,,,,,,,,,,,,,,,,,,,,,,,,,,,
-4.124,0.448,7.144,-0.164,0.203,0.861,373513,2017-03-13 23:03:13:064,,,,,,,,,,,,,,,,,,,,,,,,,,,,,
-4.277,-0.122,6.432,0.551,-0.096,-0.38,374013,2017-03-13 23:03:13:564,,,,,,,,,,,,,,,,,,,,,,,,,,,,,
-3.879,1.063,7.753,0.026,-0.571,0.083,374513,2017-03-13 23:03:14:064,,,,,,,,,,,,,,,,,,,,,,,,,,,,,
-2.516,-0.279,7.785,-0.336,-0.196,1.482,375013,2017-03-13 23:03:14:564,,,,,,,,,,,,,,,,,,,,,,,,,,,,,
-4.313,-1.094,8.015,0.148,-0.288,0.742,375513,2017-03-13 23:03:15:064,,,,,,,,,,,,,,,,,,,,,,,,,,,,,
-4.056,-0.664,7.78,0.1,-0.353,0.016,376013,2017-03-13 23:03:15:564,,,,,,,,,,,,,,,,,,,,,,,,,,,,,
-3.991,-1.002,7.682,0.04,0.039,0.192,376512,2017-03-13 23:03:16:063,,,,,,,,,,,,,,,,,,,,,,,,,,,,,
-4.324,-0.791,7.243,0.128,-0.124,0.192,377013,2017-03-13 23:03:16:564,,,,,,,,,,,,,,,,,,,,,,,,,,,,,
-4.775,-0.946,8.047,-0.283,0.131,1.545,377513,2017-03-13 23:03:17:064,,,,,,,,,,,,,,,,,,,,,,,,,,,,,
-4.559,-0.849,8.167,0.135,0.036,0.059,378013,2017-03-13 23:03:17:564,,,,,,,,,,,,,,,,,,,,,,,,,,,,,
-4.11,0.518,7.467,0.081,-0.148,-0.109,378513,2017-03-13 23:03:18:064,,,,,,,,,,,,,,,,,,,,,,,,,,,,,
-4.723,-1.193,7.884,0.014,-0.261,0.219,379013,2017-03-13 23:03:18:564,,,,,,,,,,,,,,,,,,,,,,,,,,,,,
-4.093,0.116,7.187,0.015,-0.226,0.243,379512,2017-03-13 23:03:19:063,,,,,,,,,,,,,,,,,,,,,,,,,,,,,
-4.205,0.189,6.554,-0.009,0.059,0.41,380012,2017-03-13 23:03:19:563,,,,,,,,,,,,,,,,,,,,,,,,,,,,,
-4.144,0.131,6.953,0.226,0.118,0.028,380514,2017-03-13 23:03:20:065,,,,,,,,,,,,,,,,,,,,,,,,,,,,,
-3.69,-1.32,7.172,0.09,0.239,0.061,381013,2017-03-13 23:03:20:564,,,,,,,,,,,,,,,,,,,,,,,,,,,,,
-5.366,-1.302,7.729,-0.724,-0.397,1.692,381513,2017-03-13 23:03:21:064,,,,,,,,,,,,,,,,,,,,,,,,,,,,,
-4.09,0.165,7.755,-0.073,-0.367,0.143,382013,2017-03-13 23:03:21:564,,,,,,,,,,,,,,,,,,,,,,,,,,,,,
-3.918,-0.142,8.022,0.374,0.224,0.009,382512,2017-03-13 23:03:22:063,,,,,,,,,,,,,,,,,,,,,,,,,,,,,
-5.015,-0.067,10.381,1.165,0.028,-0.815,383012,2017-03-13 23:03:22:563,,,,,,,,,,,,,,,,,,,,,,,,,,,,,
-4.374,-0.747,9.487,1.052,0.084,-0.951,383512,2017-03-13 23:03:23:063,,,,,,,,,,,,,,,,,,,,,,,,,,,,,
-4.081,-1.389,6.943,-0.833,0.395,0.511,384013,2017-03-13 23:03:23:564,,,,,,,,,,,,,,,,,,,,,,,,,,,,,
-3.857,-0.016,7.61,0.003,-0.125,0.177,384512,2017-03-13 23:03:24:063,,,,,,,,,,,,,,,,,,,,,,,,,,,,,
-4.867,-1.394,6.847,0.149,0.363,-0.145,385013,2017-03-13 23:03:24:564,,,,,,,,,,,,,,,,,,,,,,,,,,,,,
-3.824,-1.362,7.56,0.163,0.34,0.44,385513,2017-03-13 23:03:25:064,,,,,,,,,,,,,,,,,,,,,,,,,,,,,
-4.647,-0.03,7.382,-0.093,0.129,0.531,386013,2017-03-13 23:03:25:564,,,,,,,,,,,,,,,,,,,,,,,,,,,,,
-3.964,0.031,7.142,-0.364,-0.178,0.258,386512,2017-03-13 23:03:26:063,,,,,,,,,,,,,,,,,,,,,,,,,,,,,
-3.916,-0.587,8.253,0.514,-0.097,0.864,387013,2017-03-13 23:03:26:564,,,,,,,,,,,,,,,,,,,,,,,,,,,,,
-3.045,-1.929,9.094,-0.253,-0.537,0.425,387512,2017-03-13 23:03:27:063,,,,,,,,,,,,,,,,,,,,,,,,,,,,,
-3.998,-0.941,7.353,-0.083,-0.91,-0.371,388013,2017-03-13 23:03:27:564,,,,,,,,,,,,,,,,,,,,,,,,,,,,,
-3.692,-0.516,7.062,0.011,-0.383,-0.056,388512,2017-03-13 23:03:28:063,,,,,,,,,,,,,,,,,,,,,,,,,,,,,
-4.232,-1.041,7.846,0.079,0.272,0.336,389013,2017-03-13 23:03:28:564,,,,,,,,,,,,,,,,,,,,,,,,,,,,,
-3.571,0.256,7.637,0.009,-0.618,-0.309,389513,2017-03-13 23:03:29:064,,,,,,,,,,,,,,,,,,,,,,,,,,,,,
-3.971,-1.544,6.84,-0.772,-0.165,0.917,390012,2017-03-13 23:03:29:563,,,,,,,,,,,,,,,,,,,,,,,,,,,,,
-6.482,-0.552,9.056,-0.283,-0.078,1.919,390513,2017-03-13 23:03:30:064,,,,,,,,,,,,,,,,,,,,,,,,,,,,,
-4.374,0.43,6.443,-0.244,-0.345,0.55,391013,2017-03-13 23:03:30:564,,,,,,,,,,,,,,,,,,,,,,,,,,,,,
-4.892,0.234,7.485,0.504,0.404,0.07,391513,2017-03-13 23:03:31:064,,,,,,,,,,,,,,,,,,,,,,,,,,,,,
-2.309,0.091,9.218,-0.16,-0.26,0.366,392012,2017-03-13 23:03:31:563,,,,,,,,,,,,,,,,,,,,,,,,,,,,,
-4.382,-0.723,7.701,0.228,-0.223,0.741,392513,2017-03-13 23:03:32:064,,,,,,,,,,,,,,,,,,,,,,,,,,,,,
-3.57,-0.745,7.223,0.47,-0.06,-0.123,393013,2017-03-13 23:03:32:564,,,,,,,,,,,,,,,,,,,,,,,,,,,,,
-4.279,0.199,9.149,-0.192,0.502,1.448,393513,2017-03-13 23:03:33:064,,,,,,,,,,,,,,,,,,,,,,,,,,,,,
-4.903,0.757,6.389,0.375,0.325,-0.246,394013,2017-03-13 23:03:33:564,,,,,,,,,,,,,,,,,,,,,,,,,,,,,
-4.832,-0.794,8.182,0.073,-0.499,0.16,394513,2017-03-13 23:03:34:064,,,,,,,,,,,,,,,,,,,,,,,,,,,,,
-3.218,-0.829,6.706,0.384,-0.302,0.074,395013,2017-03-13 23:03:34:564,,,,,,,,,,,,,,,,,,,,,,,,,,,,,
-3.343,0.643,6.794,0.221,-0.398,0.416,395513,2017-03-13 23:03:35:064,,,,,,,,,,,,,,,,,,,,,,,,,,,,,
-2.859,-0.309,7.114,1.576,-0.07,0.293,396013,2017-03-13 23:03:35:564,,,,,,,,,,,,,,,,,,,,,,,,,,,,,
-5.026,1.167,8.192,-0.629,-0.748,0.368,396512,2017-03-13 23:03:36:063,,,,,,,,,,,,,,,,,,,,,,,,,,,,,
-3.958,-0.194,6.913,0.655,-0.205,-0.612,397013,2017-03-13 23:03:36:564,,,,,,,,,,,,,,,,,,,,,,,,,,,,,
-2.484,0.398,7.602,0.052,-0.446,0.013,397513,2017-03-13 23:03:37:064,,,,,,,,,,,,,,,,,,,,,,,,,,,,,
-3.199,-0.661,7.978,0.113,-0.056,-0.073,398013,2017-03-13 23:03:37:564,,,,,,,,,,,,,,,,,,,,,,,,,,,,,
-7.844,0.371,7.428,-1.362,-1.038,2.22,398513,2017-03-13 23:03:38:064,,,,,,,,,,,,,,,,,,,,,,,,,,,,,
-3.418,0.253,7.504,0.278,-0.311,0.567,399013,2017-03-13 23:03:38:564,,,,,,,,,,,,,,,,,,,,,,,,,,,,,
-4.324,-0.526,7.315,0.146,0.091,0.999,399513,2017-03-13 23:03:39:064,,,,,,,,,,,,,,,,,,,,,,,,,,,,,
-4.027,-0.695,8.459,0.46,-0.288,-0.507,400012,2017-03-13 23:03:39:563,,,,,,,,,,,,,,,,,,,,,,,,,,,,,
-4.26,0.216,9.278,0.594,0.514,-0.036,400513,2017-03-13 23:03:40:064,,,,,,,,,,,,,,,,,,,,,,,,,,,,,
-3.7,-0.21,7.292,0.44,0.338,-0.11,401013,2017-03-13 23:03:40:564,,,,,,,,,,,,,,,,,,,,,,,,,,,,,
-5.764,-0.258,-0.299,-0.69,-0.425,1.673,401513,2017-03-13 23:03:41:064,,,,,,,,,,,,,,,,,,,,,,,,,,,,,
-4.595,-0.5,11.152,0.961,-0.724,-1.713,402012,2017-03-13 23:03:41:563,,,,,,,,,,,,,,,,,,,,,,,,,,,,,
-3.498,0.038,6.464,0.168,-0.454,-0.966,402513,2017-03-13 23:03:42:064,,,,,,,,,,,,,,,,,,,,,,,,,,,,,
-4.732,-0.759,6.664,-0.291,-0.068,-0.124,403012,2017-03-13 23:03:42:563,,,,,,,,,,,,,,,,,,,,,,,,,,,,,
-4.945,-1.127,7.482,-0.453,-0.688,-0.276,403512,2017-03-13 23:03:43:063,,,,,,,,,,,,,,,,,,,,,,,,,,,,,
-3.834,-0.536,7.276,0.132,-0.348,-0.224,404013,2017-03-13 23:03:43:564,,,,,,,,,,,,,,,,,,,,,,,,,,,,,
-3.929,-1.44,6.7,-0.01,0.39,0.828,404512,2017-03-13 23:03:44:063,,,,,,,,,,,,,,,,,,,,,,,,,,,,,
-3.971,-1.327,5.665,-0.188,-0.005,0.458,405012,2017-03-13 23:03:44:563,,,,,,,,,,,,,,,,,,,,,,,,,,,,,
-3.637,0.28,7.57,0.773,0.001,-1.161,405513,2017-03-13 23:03:45:064,,,,,,,,,,,,,,,,,,,,,,,,,,,,,
-4.49,0.494,8.45,2.538,0.867,-1.529,406012,2017-03-13 23:03:45:563,,,,,,,,,,,,,,,,,,,,,,,,,,,,,
-3.953,0.366,7.627,0.259,-0.274,0.236,406513,2017-03-13 23:03:46:064,,,,,,,,,,,,,,,,,,,,,,,,,,,,,
-3.557,-0.617,6.831,-0.341,0.226,0.409,407013,2017-03-13 23:03:46:564,,,,,,,,,,,,,,,,,,,,,,,,,,,,,
-2.911,-1.352,9.589,0.589,0.553,-0.552,407513,2017-03-13 23:03:47:064,,,,,,,,,,,,,,,,,,,,,,,,,,,,,
-3.532,-0.121,4.189,1.426,-0.713,-1.973,408013,2017-03-13 23:03:47:564,,,,,,,,,,,,,,,,,,,,,,,,,,,,,
-5.259,0.475,8.798,0.955,-0.349,-1.77,408513,2017-03-13 23:03:48:064,,,,,,,,,,,,,,,,,,,,,,,,,,,,,
-4.283,-0.798,7.122,1.377,-0.257,-2.147,409013,2017-03-13 23:03:48:564,,,,,,,,,,,,,,,,,,,,,,,,,,,,,
-3.919,-0.655,6.175,0.034,-0.483,0.28,409513,2017-03-13 23:03:49:064,,,,,,,,,,,,,,,,,,,,,,,,,,,,,
-3.629,-1.339,4.717,0.08,-0.356,0.234,410013,2017-03-13 23:03:49:564,,,,,,,,,,,,,,,,,,,,,,,,,,,,,
-4.1,-0.954,-0.29,0.118,0.415,0.485,410512,2017-03-13 23:03:50:063,,,,,,,,,,,,,,,,,,,,,,,,,,,,,
-4.909,0.161,6.584,-0.371,-0.085,-0.348,411013,2017-03-13 23:03:50:564,,,,,,,,,,,,,,,,,,,,,,,,,,,,,
-3.895,0.143,7.482,-0.13,-0.039,0.277,411513,2017-03-13 23:03:51:064,,,,,,,,,,,,,,,,,,,,,,,,,,,,,
-4.634,0.581,6.394,0.718,0.011,-0.431,412012,2017-03-13 23:03:51:563,,,,,,,,,,,,,,,,,,,,,,,,,,,,,
-4.23,-0.054,7.796,0.031,-0.298,0.501,412513,2017-03-13 23:03:52:064,,,,,,,,,,,,,,,,,,,,,,,,,,,,,
-3.934,0.263,8.034,0.106,-0.011,-0.312,413012,2017-03-13 23:03:52:563,,,,,,,,,,,,,,,,,,,,,,,,,,,,,
-3.648,-0.567,6.991,0.05,0.052,0.205,413512,2017-03-13 23:03:53:063,,,,,,,,,,,,,,,,,,,,,,,,,,,,,
-4.317,-0.176,8.85,0.55,-0.098,0.28,414012,2017-03-13 23:03:53:563,,,,,,,,,,,,,,,,,,,,,,,,,,,,,
-4.959,0.714,9.082,0.741,-0.243,0.176,414512,2017-03-13 23:03:54:063,,,,,,,,,,,,,,,,,,,,,,,,,,,,,
-4.418,-0.516,1.905,0.409,-0.375,3.175,415013,2017-03-13 23:03:54:564,,,,,,,,,,,,,,,,,,,,,,,,,,,,,
-3.631,-0.118,6.506,0.095,0.41,1.32,415513,2017-03-13 23:03:55:064,,,,,,,,,,,,,,,,,,,,,,,,,,,,,
-3.748,-0.59,8.085,0.766,0.119,0.54,416013,2017-03-13 23:03:55:564,,,,,,,,,,,,,,,,,,,,,,,,,,,,,
-3.736,0.892,6.873,-0.057,0.284,1.066,416512,2017-03-13 23:03:56:063,,,,,,,,,,,,,,,,,,,,,,,,,,,,,
-6.093,0.359,8.088,-0.318,-0.317,0.617,417013,2017-03-13 23:03:56:564,,,,,,,,,,,,,,,,,,,,,,,,,,,,,
-5.04,0.412,7.466,-0.051,-0.054,0.037,417512,2017-03-13 23:03:57:063,,,,,,,,,,,,,,,,,,,,,,,,,,,,,
-3.977,-0.768,7.431,-0.441,-0.238,-0.035,418013,2017-03-13 23:03:57:564,,,,,,,,,,,,,,,,,,,,,,,,,,,,,
-4.805,-0.633,8.094,0.043,0.193,0.328,418513,2017-03-13 23:03:58:064,,,,,,,,,,,,,,,,,,,,,,,,,,,,,
-4.631,0,7.274,-0.327,-0.154,0.072,419013,2017-03-13 23:03:58:564,,,,,,,,,,,,,,,,,,,,,,,,,,,,,
-3.42,-0.522,7.748,-0.619,-0.342,0.68,419513,2017-03-13 23:03:59:064,,,,,,,,,,,,,,,,,,,,,,,,,,,,,
-4.51,0.667,7.175,-0.066,-0.108,0.468,420012,2017-03-13 23:03:59:563,,,,,,,,,,,,,,,,,,,,,,,,,,,,,
-4.716,-0.84,10.597,-0.172,-0.011,0.291,420513,2017-03-13 23:04:00:064,,,,,,,,,,,,,,,,,,,,,,,,,,,,,
-2.737,0.3,4.961,1.184,0.144,-0.453,421013,2017-03-13 23:04:00:564,,,,,,,,,,,,,,,,,,,,,,,,,,,,,
-5.046,-0.894,8.399,-0.687,0.029,1.528,421512,2017-03-13 23:04:01:063,,,,,,,,,,,,,,,,,,,,,,,,,,,,,
-2.232,0.034,7.863,0.565,-0.468,0.582,422013,2017-03-13 23:04:01:564,,,,,,,,,,,,,,,,,,,,,,,,,,,,,
-1.969,-0.067,8.644,1.551,-0.485,1.029,422513,2017-03-13 23:04:02:064,,,,,,,,,,,,,,,,,,,,,,,,,,,,,
-0.498,0.138,7.486,1.909,-0.324,0.779,423012,2017-03-13 23:04:02:563,,,,,,,,,,,,,,,,,,,,,,,,,,,,,
-0.999,0.01,9.517,2.006,-0.381,0.882,423513,2017-03-13 23:04:03:064,,,,,,,,,,,,,,,,,,,,,,,,,,,,,
-2.149,-0.642,8.035,2.12,0.028,0.809,424013,2017-03-13 23:04:03:564,,,,,,,,,,,,,,,,,,,,,,,,,,,,,
-1.846,0.689,8.904,0.807,-0.007,1.182,424513,2017-03-13 23:04:04:064,,,,,,,,,,,,,,,,,,,,,,,,,,,,,
-2.284,0.752,9.022,1.27,0.068,0.796,425013,2017-03-13 23:04:04:564,,,,,,,,,,,,,,,,,,,,,,,,,,,,,
-2.857,0.359,8.692,0.45,0.382,0.512,425513,2017-03-13 23:04:05:064,,,,,,,,,,,,,,,,,,,,,,,,,,,,,
-3.516,1.644,6.979,-0.215,0.928,-0.103,426013,2017-03-13 23:04:05:564,,,,,,,,,,,,,,,,,,,,,,,,,,,,,
-4.21,1.751,8.202,-0.8,1.306,0.075,426513,2017-03-13 23:04:06:064,,,,,,,,,,,,,,,,,,,,,,,,,,,,,
-4.835,2.8,6.815,-0.617,1.088,-0.467,427013,2017-03-13 23:04:06:564,,,,,,,,,,,,,,,,,,,,,,,,,,,,,
-5.186,2.561,8,-1.512,0.694,0.643,427512,2017-03-13 23:04:07:063,,,,,,,,,,,,,,,,,,,,,,,,,,,,,
-5.585,2.481,5.544,-0.912,0.518,-0.56,428013,2017-03-13 23:04:07:564,,,,,,,,,,,,,,,,,,,,,,,,,,,,,
-6.027,2.296,7.12,-1.028,1.084,-0.916,428512,2017-03-13 23:04:08:063,,,,,,,,,,,,,,,,,,,,,,,,,,,,,
-5.749,1.553,6.42,-1.271,0.101,-0.261,429013,2017-03-13 23:04:08:564,,,,,,,,,,,,,,,,,,,,,,,,,,,,,
-6.354,0.779,6.931,-0.663,-0.135,-0.638,429512,2017-03-13 23:04:09:063,,,,,,,,,,,,,,,,,,,,,,,,,,,,,
-5.994,-0.187,5.483,-0.375,-1.35,-0.239,430012,2017-03-13 23:04:09:563,,,,,,,,,,,,,,,,,,,,,,,,,,,,,
-5.811,0.15,6.755,-0.141,-0.933,-0.398,430513,2017-03-13 23:04:10:064,,,,,,,,,,,,,,,,,,,,,,,,,,,,,
-6.133,-0.721,6.402,-0.05,-1.343,-0.079,431012,2017-03-13 23:04:10:563,,,,,,,,,,,,,,,,,,,,,,,,,,,,,
-6.041,-0.472,7.518,-0.051,-0.84,-0.015,431513,2017-03-13 23:04:11:064,,,,,,,,,,,,,,,,,,,,,,,,,,,,,
-4.202,-0.22,7.303,1.744,-0.803,0.703,432013,2017-03-13 23:04:11:564,,,,,,,,,,,,,,,,,,,,,,,,,,,,,
-4.975,-0.266,6.918,1.001,-1.048,0.524,432513,2017-03-13 23:04:12:064,,,,,,,,,,,,,,,,,,,,,,,,,,,,,
-6.354,0.682,7.065,0.1,-0.765,-0.093,433013,2017-03-13 23:04:12:564,,,,,,,,,,,,,,,,,,,,,,,,,,,,,
-5.672,-1.081,6.508,-0.166,-0.874,0.191,433513,2017-03-13 23:04:13:064,,,,,,,,,,,,,,,,,,,,,,,,,,,,,
-4.977,1.042,5.563,0.486,-0.227,0.368,434013,2017-03-13 23:04:13:564,,,,,,,,,,,,,,,,,,,,,,,,,,,,,
-5.595,0.131,7.303,0.457,-0.966,-0.203,434513,2017-03-13 23:04:14:064,,,,,,,,,,,,,,,,,,,,,,,,,,,,,
-4.312,-0.116,6.267,0.429,-0.498,0.023,435012,2017-03-13 23:04:14:563,,,,,,,,,,,,,,,,,,,,,,,,,,,,,
-5.301,-0.377,6.094,0.425,-0.373,0.008,435513,2017-03-13 23:04:15:064,,,,,,,,,,,,,,,,,,,,,,,,,,,,,
-4.696,0.12,8.047,1.118,0.76,0.192,436012,2017-03-13 23:04:15:563,,,,,,,,,,,,,,,,,,,,,,,,,,,,,
-3.388,-0.905,7.507,1.255,0.088,0.996,436513,2017-03-13 23:04:16:064,,,,,,,,,,,,,,,,,,,,,,,,,,,,,
-4.667,-0.577,8.874,-0.072,-0.336,-0.039,437013,2017-03-13 23:04:16:564,,,,,,,,,,,,,,,,,,,,,,,,,,,,,
-4.969,-0.759,5.975,-0.268,-0.67,-0.43,437512,2017-03-13 23:04:17:063,,,,,,,,,,,,,,,,,,,,,,,,,,,,,
-4.454,-0.027,8.61,0.629,-0.607,0.052,438013,2017-03-13 23:04:17:564,,,,,,,,,,,,,,,,,,,,,,,,,,,,,
-4.531,-0.56,7.999,0.164,-0.577,0.045,438512,2017-03-13 23:04:18:063,,,,,,,,,,,,,,,,,,,,,,,,,,,,,
-4.441,-0.052,7.942,0.921,-0.411,0.097,439012,2017-03-13 23:04:18:563,,,,,,,,,,,,,,,,,,,,,,,,,,,,,
-5.044,-1.334,5.978,0.356,-0.388,0.601,439513,2017-03-13 23:04:19:064,,,,,,,,,,,,,,,,,,,,,,,,,,,,,
-4.041,0.024,5.759,0.208,-0.376,0.433,440012,2017-03-13 23:04:19:563,,,,,,,,,,,,,,,,,,,,,,,,,,,,,
-4.5,-0.545,7.751,-0.011,-0.737,0.063,440513,2017-03-13 23:04:20:064,,,,,,,,,,,,,,,,,,,,,,,,,,,,,
-4.197,-0.662,7.382,0.897,-0.233,0.666,441012,2017-03-13 23:04:20:563,,,,,,,,,,,,,,,,,,,,,,,,,,,,,
-4.893,-0.053,8.003,0.11,0.123,0.772,441513,2017-03-13 23:04:21:064,,,,,,,,,,,,,,,,,,,,,,,,,,,,,
-4.244,-0.17,7.408,0.842,-0.011,-0.187,442013,2017-03-13 23:04:21:564,,,,,,,,,,,,,,,,,,,,,,,,,,,,,
-4.814,-1.327,7.03,0.086,-0.058,0.448,442513,2017-03-13 23:04:22:064,,,,,,,,,,,,,,,,,,,,,,,,,,,,,
-4.509,-0.847,6.77,0.325,-0.147,-0.178,443012,2017-03-13 23:04:22:563,,,,,,,,,,,,,,,,,,,,,,,,,,,,,
-4.387,-0.748,7.689,0.483,-0.399,0.22,443513,2017-03-13 23:04:23:064,,,,,,,,,,,,,,,,,,,,,,,,,,,,,
-3.282,0.161,6.091,-0.082,-0.468,0.434,444012,2017-03-13 23:04:23:563,,,,,,,,,,,,,,,,,,,,,,,,,,,,,
-4.872,-0.357,7.004,-0.711,0.19,1.245,444513,2017-03-13 23:04:24:064,,,,,,,,,,,,,,,,,,,,,,,,,,,,,
-3.865,-0.052,7.623,-0.24,-0.214,0.284,445013,2017-03-13 23:04:24:564,,,,,,,,,,,,,,,,,,,,,,,,,,,,,
-3.673,0.159,5.545,-0.109,0.231,0.471,445512,2017-03-13 23:04:25:063,,,,,,,,,,,,,,,,,,,,,,,,,,,,,
-4.509,-0.611,6.633,0.148,-0.008,0.471,446012,2017-03-13 23:04:25:563,,,,,,,,,,,,,,,,,,,,,,,,,,,,,
-4.339,-0.832,7.111,0.218,0.084,-0.041,446513,2017-03-13 23:04:26:064,,,,,,,,,,,,,,,,,,,,,,,,,,,,,
-5.123,-0.521,7.523,0.181,-0.139,0.196,447012,2017-03-13 23:04:26:563,,,,,,,,,,,,,,,,,,,,,,,,,,,,,
-4.793,-1.659,7.328,0.205,-0.246,0.075,447512,2017-03-13 23:04:27:063,,,,,,,,,,,,,,,,,,,,,,,,,,,,,
-4.368,-1.026,7.841,0.416,0.152,-0.108,448013,2017-03-13 23:04:27:564,,,,,,,,,,,,,,,,,,,,,,,,,,,,,
-3.826,-1.284,7.175,0.761,-0.218,-0.124,448512,2017-03-13 23:04:28:063,,,,,,,,,,,,,,,,,,,,,,,,,,,,,
-4.106,-0.826,6.403,0.011,-0.274,0.39,449012,2017-03-13 23:04:28:563,,,,,,,,,,,,,,,,,,,,,,,,,,,,,
-4.395,0.094,7.29,0.531,-0.142,-0.257,449513,2017-03-13 23:04:29:064,,,,,,,,,,,,,,,,,,,,,,,,,,,,,
-2.894,0.329,6.311,0.312,0.072,0.475,450012,2017-03-13 23:04:29:563,,,,,,,,,,,,,,,,,,,,,,,,,,,,,
-4.76,-0.855,7.828,0.198,-0.208,0.645,450513,2017-03-13 23:04:30:064,,,,,,,,,,,,,,,,,,,,,,,,,,,,,
-4.465,0.3,7.144,0.634,0.092,-0.147,451013,2017-03-13 23:04:30:564,,,,,,,,,,,,,,,,,,,,,,,,,,,,,
-4.83,0.471,8.523,0.463,-0.056,0.686,451513,2017-03-13 23:04:31:064,,,,,,,,,,,,,,,,,,,,,,,,,,,,,
-4.464,-0.017,8.558,0.583,-0.2,-0.168,452012,2017-03-13 23:04:31:563,,,,,,,,,,,,,,,,,,,,,,,,,,,,,
-4.15,-0.04,6.525,-0.128,-0.131,0.032,452513,2017-03-13 23:04:32:064,,,,,,,,,,,,,,,,,,,,,,,,,,,,,
-4.936,-0.067,12.6,1.744,0.897,-2.276,453012,2017-03-13 23:04:32:563,,,,,,,,,,,,,,,,,,,,,,,,,,,,,
-3.136,-0.989,4.532,0.448,-0.227,-0.903,453513,2017-03-13 23:04:33:064,,,,,,,,,,,,,,,,,,,,,,,,,,,,,
-4.532,-0.573,7.159,-0.862,-0.343,-0.25,454013,2017-03-13 23:04:33:564,,,,,,,,,,,,,,,,,,,,,,,,,,,,,
-4.482,-0.262,8.256,-0.283,0.014,0.272,454513,2017-03-13 23:04:34:064,,,,,,,,,,,,,,,,,,,,,,,,,,,,,
-5.244,0.424,9.743,-0.419,-0.35,-0.121,455012,2017-03-13 23:04:34:563,,,,,,,,,,,,,,,,,,,,,,,,,,,,,
-3.46,1.472,10.195,-2.019,-1.009,0.129,455513,2017-03-13 23:04:35:064,,,,,,,,,,,,,,,,,,,,,,,,,,,,,
-4.372,-0.016,5.526,-0.543,-0.256,-0.545,456012,2017-03-13 23:04:35:563,,,,,,,,,,,,,,,,,,,,,,,,,,,,,
-4.884,-0.662,7.793,0.15,-0.357,0.473,456513,2017-03-13 23:04:36:064,,,,,,,,,,,,,,,,,,,,,,,,,,,,,
-4.458,-0.423,7.049,0.287,-0.098,0.301,457013,2017-03-13 23:04:36:564,,,,,,,,,,,,,,,,,,,,,,,,,,,,,
-3.612,-0.457,6.318,0.238,-0.104,0.786,457513,2017-03-13 23:04:37:064,,,,,,,,,,,,,,,,,,,,,,,,,,,,,
-3.362,0.021,6.965,0.766,0.289,0.078,458012,2017-03-13 23:04:37:563,,,,,,,,,,,,,,,,,,,,,,,,,,,,,
-2.649,0.325,6.69,0.623,-0.006,0.478,458513,2017-03-13 23:04:38:064,,,,,,,,,,,,,,,,,,,,,,,,,,,,,
-2.103,0.532,6.244,1.483,0.165,-0.909,459013,2017-03-13 23:04:38:564,,,,,,,,,,,,,,,,,,,,,,,,,,,,,
-4.336,0.272,7.025,0.897,-0.305,-0.89,459513,2017-03-13 23:04:39:064,,,,,,,,,,,,,,,,,,,,,,,,,,,,,
-3.588,-1.403,8.402,0.079,0.34,0.582,460013,2017-03-13 23:04:39:564,,,,,,,,,,,,,,,,,,,,,,,,,,,,,
-4.518,-0.511,6.968,0.026,-0.192,-0.22,460513,2017-03-13 23:04:40:064,,,,,,,,,,,,,,,,,,,,,,,,,,,,,
-3.752,-1.447,7.821,-0.028,-0.246,0.416,461013,2017-03-13 23:04:40:564,,,,,,,,,,,,,,,,,,,,,,,,,,,,,
-3.748,-0.079,7.882,-0.115,-0.079,0.504,461513,2017-03-13 23:04:41:064,,,,,,,,,,,,,,,,,,,,,,,,,,,,,
-4.472,-0.316,8.277,-0.044,-0.292,0.838,462012,2017-03-13 23:04:41:563,,,,,,,,,,,,,,,,,,,,,,,,,,,,,
-3.998,-0.442,6.431,0.185,-0.424,-0.414,462512,2017-03-13 23:04:42:063,,,,,,,,,,,,,,,,,,,,,,,,,,,,,
-4.589,0.648,7.33,0.624,-0.283,-0.168,463013,2017-03-13 23:04:42:564,,,,,,,,,,,,,,,,,,,,,,,,,,,,,
-4.27,-0.346,7.247,0.015,-0.043,0.224,463513,2017-03-13 23:04:43:064,,,,,,,,,,,,,,,,,,,,,,,,,,,,,
-3.423,-0.37,7.331,1.541,0.386,-0.348,464013,2017-03-13 23:04:43:564,,,,,,,,,,,,,,,,,,,,,,,,,,,,,
-3.855,-0.041,8.429,-0.002,0.319,0.535,464513,2017-03-13 23:04:44:064,,,,,,,,,,,,,,,,,,,,,,,,,,,,,
-5.566,-1.028,6.697,-0.433,-0.088,-0.366,465013,2017-03-13 23:04:44:564,,,,,,,,,,,,,,,,,,,,,,,,,,,,,
-5.068,-0.73,9.341,-0.174,-0.158,-0.193,465512,2017-03-13 23:04:45:063,,,,,,,,,,,,,,,,,,,,,,,,,,,,,
-4.382,-0.882,7.397,0.01,-0.142,-0.198,466012,2017-03-13 23:04:45:563,,,,,,,,,,,,,,,,,,,,,,,,,,,,,
-4.556,-0.611,7.89,0.284,0.132,0.426,466513,2017-03-13 23:04:46:064,,,,,,,,,,,,,,,,,,,,,,,,,,,,,
-4.07,-0.549,9.33,0.244,0.21,-0.255,467013,2017-03-13 23:04:46:564,,,,,,,,,,,,,,,,,,,,,,,,,,,,,
-3.765,-0.175,7.665,0.425,0.164,0.085,467512,2017-03-13 23:04:47:063,,,,,,,,,,,,,,,,,,,,,,,,,,,,,
-3.329,-0.34,8.872,0.401,-0.259,0.606,468013,2017-03-13 23:04:47:564,,,,,,,,,,,,,,,,,,,,,,,,,,,,,
-2.263,-0.188,6.645,1.362,-0.055,0.92,468513,2017-03-13 23:04:48:064,,,,,,,,,,,,,,,,,,,,,,,,,,,,,
-3.654,-0.113,8.748,0.884,-0.561,1.464,469013,2017-03-13 23:04:48:564,,,,,,,,,,,,,,,,,,,,,,,,,,,,,
-1.564,-0.106,3.659,1.539,-0.246,-1.626,469513,2017-03-13 23:04:49:064,,,,,,,,,,,,,,,,,,,,,,,,,,,,,
-3.17,-0.321,7.347,0.465,-0.36,-0.355,470013,2017-03-13 23:04:49:564,,,,,,,,,,,,,,,,,,,,,,,,,,,,,
-4.082,-1.015,7.907,0.912,-0.042,0.087,470513,2017-03-13 23:04:50:064,,,,,,,,,,,,,,,,,,,,,,,,,,,,,
-1.607,0.422,7.26,2.156,-0.031,0.878,471012,2017-03-13 23:04:50:563,,,,,,,,,,,,,,,,,,,,,,,,,,,,,
-0.364,-1.076,9.123,2.652,-0.488,1.145,471512,2017-03-13 23:04:51:063,,,,,,,,,,,,,,,,,,,,,,,,,,,,,
-1.784,0.43,9.011,1.873,-0.048,0.963,472013,2017-03-13 23:04:51:564,,,,,,,,,,,,,,,,,,,,,,,,,,,,,
-1.541,-0.541,8.668,1.33,-0.14,0.664,472513,2017-03-13 23:04:52:064,,,,,,,,,,,,,,,,,,,,,,,,,,,,,
-1.184,-0.532,8.305,1.571,0.06,0.693,473013,2017-03-13 23:04:52:564,,,,,,,,,,,,,,,,,,,,,,,,,,,,,
-4.175,-0.527,7.248,1.368,0.19,0.439,473513,2017-03-13 23:04:53:064,,,,,,,,,,,,,,,,,,,,,,,,,,,,,
-4.965,1.228,7.013,-0.915,0.353,-0.945,474013,2017-03-13 23:04:53:564,,,,,,,,,,,,,,,,,,,,,,,,,,,,,
-5.885,0.426,6.902,-2.145,0.337,-1.257,474513,2017-03-13 23:04:54:064,,,,,,,,,,,,,,,,,,,,,,,,,,,,,
-6.087,0.658,5.956,-2.079,0.94,-0.948,475013,2017-03-13 23:04:54:564,,,,,,,,,,,,,,,,,,,,,,,,,,,,,
-5.371,1.513,7.584,-1.221,1.192,-0.127,475513,2017-03-13 23:04:55:064,,,,,,,,,,,,,,,,,,,,,,,,,,,,,
-5.664,2.306,7.509,-1.227,1.661,-0.578,476012,2017-03-13 23:04:55:563,,,,,,,,,,,,,,,,,,,,,,,,,,,,,
-5.268,2.255,6.288,-0.928,1.735,-0.278,476513,2017-03-13 23:04:56:064,,,,,,,,,,,,,,,,,,,,,,,,,,,,,
-5.528,1.58,6.788,-1.079,0.894,-0.264,477013,2017-03-13 23:04:56:564,,,,,,,,,,,,,,,,,,,,,,,,,,,,,
-5.66,-0.844,7.176,-1.173,-1.12,-0.192,477513,2017-03-13 23:04:57:064,,,,,,,,,,,,,,,,,,,,,,,,,,,,,
-6.097,-1.215,5.781,-2.515,-1.186,-0.932,478013,2017-03-13 23:04:57:564,,,,,,,,,,,,,,,,,,,,,,,,,,,,,
-4.43,-0.407,6.209,-0.104,-0.786,0.024,478513,2017-03-13 23:04:58:064,,,,,,,,,,,,,,,,,,,,,,,,,,,,,
-3.785,-0.069,7.694,1.208,-0.708,0.661,479013,2017-03-13 23:04:58:564,,,,,,,,,,,,,,,,,,,,,,,,,,,,,
-5.333,-1.218,6.169,-0.127,-1.061,-0.099,479512,2017-03-13 23:04:59:063,,,,,,,,,,,,,,,,,,,,,,,,,,,,,
-5.942,-0.292,9.621,-0.462,-1.067,-0.198,480012,2017-03-13 23:04:59:563,,,,,,,,,,,,,,,,,,,,,,,,,,,,,
-4.745,-0.605,7.662,0.315,-0.452,0.07,480513,2017-03-13 23:05:00:064,,,,,,,,,,,,,,,,,,,,,,,,,,,,,
-7.232,-0.902,7.786,-2.771,0.748,0.241,481013,2017-03-13 23:05:00:564,,,,,,,,,,,,,,,,,,,,,,,,,,,,,
-4.845,-0.32,5.004,0.989,-1.228,-0.82,481513,2017-03-13 23:05:01:064,,,,,,,,,,,,,,,,,,,,,,,,,,,,,
-8.546,-0.833,11.403,-0.066,0.399,-0.083,482013,2017-03-13 23:05:01:564,,,,,,,,,,,,,,,,,,,,,,,,,,,,,
-4.545,0.152,9.46,0.234,-1.567,-1.678,482513,2017-03-13 23:05:02:064,,,,,,,,,,,,,,,,,,,,,,,,,,,,,
1.134,5.144,5.999,1.054,0.056,-0.947,483013,2017-03-13 23:05:02:564,,,,,,,,,,,,,,,,,,,,,,,,,,,,,
1.575,5.265,6.767,0.797,-0.722,-0.52,483512,2017-03-13 23:05:03:063,,,,,,,,,,,,,,,,,,,,,,,,,,,,,
-7.495,4.729,4.531,-0.668,-1.126,-1.37,484012,2017-03-13 23:05:03:563,,,,,,,,,,,,,,,,,,,,,,,,,,,,,
-1.334,4.254,6.739,-0.04,-0.82,0.337,484512,2017-03-13 23:05:04:063,,,,,,,,,,,,,,,,,,,,,,,,,,,,,
-2.652,6.08,5.978,0.475,0.265,0.049,485012,2017-03-13 23:05:04:563,,,,,,,,,,,,,,,,,,,,,,,,,,,,,
-1.211,5.971,4.97,-0.082,0.543,0.856,485513,2017-03-13 23:05:05:064,,,,,,,,,,,,,,,,,,,,,,,,,,,,,
