ACCELEROMETER X (m/s²),ACCELEROMETER Y (m/s²),ACCELEROMETER Z (m/s²),LINEAR ACCELERATION X (m/s²),LINEAR ACCELERATION Y (m/s²),LINEAR ACCELERATION Z (m/s²),Time since start in ms ,YYYY-MO-DD HH-MI-SS_SSS,,,,,,,,,,,,,,,,,,,,,,,,,,,
2.22,-0.211,8.577,0.084,-0.006,-0.003,16,2017-03-14 01:13:30:591,,,,,,,,,,,,,,,,,,,,,,,,,,,
2.223,-0.26,8.576,0.062,-0.018,-0.001,516,2017-03-14 01:13:31:091,,,,,,,,,,,,,,,,,,,,,,,,,,,
2.251,-0.234,8.594,0.033,-0.036,-0.054,1016,2017-03-14 01:13:31:591,,,,,,,,,,,,,,,,,,,,,,,,,,,0.02690892
2.252,-0.299,8.535,0.106,-0.077,0.038,1516,2017-03-14 01:13:32:091,,,,,,,,,,,,,,,,,,,,,,,,,,,0.015698408
2.211,-0.246,8.583,0.064,-0.008,-0.022,2015,2017-03-14 01:13:32:590,,,,,,,,,,,,,,,,,,,,,,,,,,,0.013112113
2.2,-0.243,8.56,0.051,-0.002,-0.038,2516,2017-03-14 01:13:33:091,,,,,,,,,,,0.013112113,0.012571694,0.015638015,,,-0.365833113,-0.999737032,-0.602179549,,0.000171928,0.000158048,0.000244548,,,2.18115,-0.23255,8.57905
2.233,-0.232,8.62,0.074,0.001,0.022,3016,2017-03-14 01:13:33:591,,,,,,,,,,,0.014548539,0.013966388,0.024167954,,,-0.70229011,-0.505239712,0.647214063,,0.00021166,0.00019506,0.00058409,,,2.1618,-0.2362,8.5819
2.191,-0.244,8.57,0.042,-0.005,-0.008,3517,2017-03-14 01:13:34:092,,,,,,,,,,,0.03166386,0.024708096,0.032153499,,,0.206800145,1.442712484,-1.024552293,,0.0010026,0.00061049,0.001033848,,,2.164,-0.2249,8.56595
2.214,-0.216,8.551,0.141,0.037,0.045,4016,2017-03-14 01:13:34:591,,,,,,,,,,,0.008879611,0.017642208,0.027165189,,,-0.034516713,0.009375502,-0.461523319,,7.88E-05,0.000311248,0.000737948,,,2.15455,-0.23005,8.57605
2.181,-0.155,8.516,0.062,0.009,0.117,4516,2017-03-14 01:13:35:091,,,,,,,,,,,0.031355183,0.019056495,0.030922282,,,1.574458594,1.707030661,-1.054825222,,0.000983148,0.00036315,0.000956188,,,2.14845,-0.2195,8.57575
2.223,-0.231,8.57,0.048,-0.009,-0.022,5017,2017-03-14 01:13:35:592,,,,,,,,,,,0.008722958,0.015786387,0.018443088,,,0.274979288,-0.930195418,-0.850041174,,7.61E-05,0.00024921,0.000340147,,,2.1319,-0.2207,8.57945
2.18,-0.237,8.565,0.047,-0.007,-0.034,5516,2017-03-14 01:13:36:091,,,,,,,,,,,0.013718236,0.011127781,0.01562202,,,0.372869504,-0.126528341,-0.593283036,,0.00018819,0.000123828,0.000244048,,,2.1269,-0.22135,8.57155
2.19,-0.217,8.534,0.061,-0.023,-0.021,6017,2017-03-14 01:13:36:592,,,,,,,,,,,0.011995312,0.010501786,0.01942035,,,-0.379686629,-0.548102493,-0.756232876,,0.000143887,0.000110288,0.00037715,,,2.12675,-0.22475,8.5735
2.154,-0.236,8.606,0.045,0.008,0.023,6516,2017-03-14 01:13:37:091,,,,,,,,,,,0.010110762,0.011727212,0.016782357,,,0.176072423,-0.620385253,-0.339508646,,0.000102228,0.000137528,0.000281647,,,2.11515,-0.22535,8.56695
2.188,-0.229,8.581,0.057,-0.027,-0.033,7016,2017-03-14 01:13:37:591,,,,,,,,,,,0.009293008,0.010949315,0.019297668,,,-0.416196581,-0.958592876,-0.29593889,,8.64E-05,0.000119888,0.0003724,,,2.1212,-0.22325,8.569
2.186,-0.222,8.598,0.039,0.006,-0.02,7516,2017-03-14 01:13:38:091,,,,,,,,,,,0.010144457,0.009598307,0.012387393,,,-0.00161207,0.19961553,0.418495441,,0.00010291,9.21E-05,0.000153448,,,2.1117,-0.21985,8.56705
2.168,-0.255,8.57,0.038,0.001,0,8016,2017-03-14 01:13:38:591,,,,,,,,,,,0.011629596,0.01203443,0.011416107,,,0.454139676,0.471284963,0.421448316,,2225044462,2523818596,2907485145,,,2.12245,-0.22085,8.56985
2.179,-0.21,8.589,0.064,-0.012,-0.011,8516,2017-03-14 01:13:39:091,,,,,,,,,,,0.013343444,0.009156828,0.014582181,,,-0.495316819,-0.453155434,-0.611429953,,0.000178047,8.38E-05,0.00021264,,,2.12155,-0.22345,8.5754
2.163,-0.223,8.584,0.063,0,-0.023,9016,2017-03-14 01:13:39:591,,,,,,,,,,,0.009154234,0.012399194,0.015030885,,,-0.069033855,0.108028881,-0.403615524,,8.38E-05,0.00015374,0.000225927,,,2.126,-0.2224,8.57635
2.191,-0.224,8.576,0.06,0.006,-0.022,9516,2017-03-14 01:13:40:091,,,,,,,,,,,0.01042533,0.010327633,0.014405207,,,0.178076436,-0.882564012,-0.482859933,,0.000108687,0.00010666,0.00020751,,,2.12525,-0.2282,8.5703
2.196,-0.244,8.553,0.038,-0.012,-0.035,10017,2017-03-14 01:13:40:592,,,,,,,,,,,0.020738611,0.021450874,0.023414686,,,0.284430504,1.536954457,-0.402326725,,0.00043009,0.00046014,0.000548248,,,2.1199,-0.1994,8.57005
2.169,-0.194,8.552,0.006,0.006,0.004,10516,2017-03-14 01:13:41:091,,,,,,,,,,,0.013899191,0.018103246,0.014674042,,,0.358341907,1.705349857,-0.359380254,,0.000193188,0.000327728,0.000215328,,,2.11725,-0.19165,8.57585
2.149,-0.228,8.576,-0.001,0.01,-0.012,11016,2017-03-14 01:13:41:591,,,,,,,,,,,0.008513959,0.010969959,0.012240915,,,0.528350672,1.43407542,-0.288995619,,7.25E-05,0.00012034,0.00014984,,,2.10875,-0.1896,8.5666
2.179,-0.246,8.581,0.006,-0.012,0.004,11516,2017-03-14 01:13:42:091,,,,,,,,,,,0.013828503,0.012643081,0.016577922,,,0.495682525,1.46609578,-0.203822907,,0.000191228,0.000159848,0.000274828,,,2.10415,-0.19445,8.57285
2.2,-0.237,8.593,0.001,-0.002,-0.014,12016,2017-03-14 01:13:42:591,,,,,,,,,,,0.012256733,0.019554731,0.051522301,,,0.575242201,1.352286047,-0.289598085,,0.000150227,0.000382388,0.002654548,,,2.10415,-0.19475,8.57255
2.179,-0.224,8.597,0.011,0,0.007,12516,2017-03-14 01:13:43:091,,,,,,,,,,,0.011872131,0.011633894,0.017502214,,,-0.055603556,1.179886665,-0.272846547,,0.000140948,0.000135348,0.000306328,,,2.11145,-0.20545,8.56735
2.188,-0.229,8.579,0.01,0.008,-0.007,13018,2017-03-14 01:13:43:593,,,,,,,,,,,0.034338899,0.041642857,0.024829972,,,-0.095537198,0.889981904,-0.318665356,,0.00117916,0.001734128,0.000616527,,,2.1182,-0.19385,8.58435
2.204,-0.215,8.567,0.02,0.016,-0.011,13516,2017-03-14 01:13:44:091,,,,,,,,,,,0.028691288,0.058674611,0.030906108,,,1.206905776,0.809872979,-0.39628839,,0.00082319,0.00344271,0.000955187,,,2.1151,-0.1457,8.56825
2.178,-0.218,8.589,0.004,0.006,0.015,14016,2017-03-14 01:13:44:591,,,,,,,,,,,0.01078842,0.012831504,0.014045996,,,1.369823026,1.318349195,-0.39628839,,0.00011639,0.000164648,0.00019729,,,2.1099,-0.14895,8.5739
2.214,-0.236,8.632,0.02,0.009,-0.05,14515,2017-03-14 01:13:45:090,,,,,,,,,,,,,,,,,,,,,,,,,,,
2.168,-0.271,8.591,-0.015,-0.034,0.014,15015,2017-03-14 01:13:45:590,,,,,,,,,,,,,,,,,,,,,,,,,,,
2.197,-0.21,8.583,0.008,0.021,0.007,15516,2017-03-14 01:13:46:091,,,,,,,,,,,0.01167251,0.01321467,0.017754647,,,0.301728083,-0.089658899,-0.013800151,,0.000136248,0.000174628,0.000315228,,,2.10695,-0.15035,8.56765
2.173,-0.234,8.603,-0.009,0.021,-0.021,16016,2017-03-14 01:13:46:591,,,,,,,,,,,0.019888439,0.026705571,0.019917015,,,0.149347024,0.369056784,0.194191716,,0.00039555,0.000713188,0.000396687,,,2.1185,-0.16725,8.56525
2.186,-0.206,8.571,0.004,0.006,0.023,16516,2017-03-14 01:13:47:091,,,,,,,,,,,0.014676171,0.014303496,0.016343194,,,0.325815743,0.524889326,0.289943632,,0.00021539,0.00020459,0.0002671,,,2.1139,-0.1631,8.565
2.16,-0.219,8.581,-0.018,0.006,0.001,17016,2017-03-14 01:13:47:591,,,,,,,,,,,0.019481979,0.012545517,0.016502348,,,0.325815743,0.757838995,0.269327926,,0.000379547,0.00015739,0.000272327,,,2.11605,-0.1651,8.57415
2.19,-0.228,8.57,-0.003,0.009,0.001,17516,2017-03-14 01:13:48:091,,,,,,,,,,,0.009971334,0.014861359,0.015072823,,,0.306422579,0.524889326,0.270867286,,9.94E-05,0.00022086,0.00022719,,,2.10835,-0.1668,8.5719
2.193,-0.226,8.576,0.022,0.005,0,18016,2017-03-14 01:13:48:591,,,,,,,,,,,0.031645655,0.030850081,0.030252066,,,2.567801421,-0.864689494,0.46766379,,0.001001448,0.000951727,0.000915188,,,2.10795,-0.15135,8.58675
2.18,-0.224,8.565,-0.005,0.008,-0.016,18516,2017-03-14 01:13:49:091,,,,,,,,,,,0.027657006,0.020700906,0.0125016,,,2.529127021,-2.165128479,0.536199185,,0.00076491,0.000428528,0.00015629,,,2.1067,-0.16265,8.5769
2.168,-0.217,8.584,0.007,0.009,-0.024,19015,2017-03-14 01:13:49:590,,,,,,,,,,,0.017974635,0.023556899,0.018169411,,,2.168863153,-1.717108279,0.407095039,,0.000323087,0.000554928,0.000330128,,,2.11825,-0.17365,8.57985
2.197,-0.23,8.571,-0.004,0.006,0.005,19516,2017-03-14 01:13:50:091,,,,,,,,,,,0.010974516,0.014086873,0.014504827,,,2.118380963,-1.654815601,0.271670457,,0.00012044,0.00019844,0.00021039,,,2.1094,-0.1634,8.5741
2.196,-0.228,8.543,-0.001,-0.01,0.008,20016,2017-03-14 01:13:50:591,,,,,,,,,,,0.011884759,0.014516887,0.01105622,,,2.046869556,-1.541089668,0.212480836,,0.000141247,0.00021074,0.00012224,,,2.10845,-0.1664,8.5666
2.2,-0.218,8.598,0.017,0.004,0.017,20516,2017-03-14 01:13:51:091,,,,,,,,,,,,,,,,,,,,,,,,,,,
2.191,-0.224,8.601,0.008,0.008,0.006,21016,2017-03-14 01:13:51:591,,,,,,,,,,,,,,,,,,,,,,,,,,,
2.191,-0.241,8.589,0.003,0.01,-0.003,21516,2017-03-14 01:13:52:091,,,,,,,,,,,,,,,,,,,,,,,,,,,
2.188,-0.237,8.585,0.001,0.013,-0.009,22016,2017-03-14 01:13:52:591,,,,,,,,,,,,,,,,,,,,,,,,,,,
2.188,-0.228,8.581,-0.002,0.006,-0.005,22516,2017-03-14 01:13:53:091,,,,,,,,,,,,,,,,,,,,,,,,,,,
2.194,-0.228,8.573,-0.024,0.003,0.028,23016,2017-03-14 01:13:53:591,,,,,,,,,,,,,,,,,,,,,,,,,,,
2.181,-0.235,8.577,-0.001,0.007,-0.013,23516,2017-03-14 01:13:54:091,,,,,,,,,,,,,,,,,,,,,,,,,,,
2.192,-0.232,8.577,0.035,0.012,0.004,24016,2017-03-14 01:13:54:591,,,,,,,,,,,,,,,,,,,,,,,,,,,
2.169,-0.229,8.569,-0.011,-0.003,-0.009,24518,2017-03-14 01:13:55:093,,,,,,,,,,,,,,,,,,,,,,,,,,,
2.187,-0.224,8.547,0.012,0.008,-0.011,25016,2017-03-14 01:13:55:591,,,,,,,,,,,,,,,,,,,,,,,,,,,
2.193,-0.252,8.563,-0.011,0.005,0.027,25516,2017-03-14 01:13:56:091,,,,,,,,,,,,,,,,,,,,,,,,,,,
2.175,-0.218,8.571,-0.015,0.005,0,26015,2017-03-14 01:13:56:590,,,,,,,,,,,,,,,,,,,,,,,,,,,
2.193,-0.259,8.581,-0.008,-0.022,0.034,26516,2017-03-14 01:13:57:091,,,,,,,,,,,,,,,,,,,,,,,,,,,
2.164,-0.261,8.591,-0.004,0.004,0.004,27016,2017-03-14 01:13:57:591,,,,,,,,,,,,,,,,,,,,,,,,,,,
2.166,-0.217,8.575,-0.013,-0.014,0.023,27516,2017-03-14 01:13:58:091,,,,,,,,,,,,,,,,,,,,,,,,,,,
2.163,-0.226,8.579,-0.001,-0.008,-0.01,28016,2017-03-14 01:13:58:591,,,,,,,,,,,,,,,,,,,,,,,,,,,
2.166,-0.22,8.581,-0.023,-0.008,0.001,28516,2017-03-14 01:13:59:091,,,,,,,,,,,,,,,,,,,,,,,,,,,
2.158,-0.242,8.606,-0.023,-0.022,0.013,29016,2017-03-14 01:13:59:591,,,,,,,,,,,,,,,,,,,,,,,,,,,
2.168,-0.232,8.594,-0.005,-0.002,0.012,29516,2017-03-14 01:14:00:091,,,,,,,,,,,,,,,,,,,,,,,,,,,
2.173,-0.226,8.573,0,0.005,-0.001,30016,2017-03-14 01:14:00:591,,,,,,,,,,,,,,,,,,,,,,,,,,,
2.166,-0.213,8.593,-0.008,0.024,-0.004,30516,2017-03-14 01:14:01:091,,,,,,,,,,,,,,,,,,,,,,,,,,,
2.162,-0.219,8.567,-0.018,-0.001,-0.01,31016,2017-03-14 01:14:01:591,,,,,,,,,,,,,,,,,,,,,,,,,,,
2.17,-0.25,8.559,-0.026,-0.014,0.013,31515,2017-03-14 01:14:02:090,,,,,,,,,,,,,,,,,,,,,,,,,,,
2.182,-0.246,8.625,-0.015,-0.013,0.017,32016,2017-03-14 01:14:02:591,,,,,,,,,,,,,,,,,,,,,,,,,,,
2.168,-0.236,8.571,-0.005,-0.009,-0.007,32516,2017-03-14 01:14:03:091,,,,,,,,,,,,,,,,,,,,,,,,,,,
2.158,-0.224,8.569,-0.016,0.021,-0.037,33016,2017-03-14 01:14:03:591,,,,,,,,,,,,,,,,,,,,,,,,,,,
2.142,-0.236,8.593,-0.03,0.008,-0.011,33517,2017-03-14 01:14:04:092,,,,,,,,,,,,,,,,,,,,,,,,,,,
2.169,-0.219,8.572,-0.037,0.017,-0.008,34016,2017-03-14 01:14:04:591,,,,,,,,,,,,,,,,,,,,,,,,,,,
2.142,-0.246,8.566,-0.02,-0.02,0.046,34517,2017-03-14 01:14:05:092,,,,,,,,,,,,,,,,,,,,,,,,,,,
2.168,-0.232,8.573,-0.01,-0.001,-0.033,35016,2017-03-14 01:14:05:591,,,,,,,,,,,,,,,,,,,,,,,,,,,
2.179,-0.234,8.554,-0.05,0.024,0.012,35516,2017-03-14 01:14:06:091,,,,,,,,,,,,,,,,,,,,,,,,,,,
2.166,-0.235,8.577,-0.01,0.009,0.001,36016,2017-03-14 01:14:06:591,,,,,,,,,,,,,,,,,,,,,,,,,,,
2.187,-0.258,8.597,-0.008,0.001,-0.02,36516,2017-03-14 01:14:07:091,,,,,,,,,,,,,,,,,,,,,,,,,,,
2.124,-0.224,8.594,-0.027,0.021,0.004,37017,2017-03-14 01:14:07:592,,,,,,,,,,,,,,,,,,,,,,,,,,,
2.151,-0.23,8.633,-0.023,0.003,0.052,37516,2017-03-14 01:14:08:091,,,,,,,,,,,,,,,,,,,,,,,,,,,
2.156,-0.266,8.622,-0.021,-0.023,0.055,38016,2017-03-14 01:14:08:591,,,,,,,,,,,,,,,,,,,,,,,,,,,
2.155,-0.231,8.543,-0.019,-0.007,0.032,38517,2017-03-14 01:14:09:092,,,,,,,,,,,,,,,,,,,,,,,,,,,
2.166,-0.259,8.555,-0.03,-0.008,0.023,39016,2017-03-14 01:14:09:591,,,,,,,,,,,,,,,,,,,,,,,,,,,
2.152,-0.24,8.602,-0.02,0.001,0.028,39515,2017-03-14 01:14:10:090,,,,,,,,,,,,,,,,,,,,,,,,,,,
2.16,-0.236,8.56,-0.012,0.005,-0.016,40016,2017-03-14 01:14:10:591,,,,,,,,,,,,,,,,,,,,,,,,,,,
2.184,-0.235,8.564,-0.026,0.022,0.034,40516,2017-03-14 01:14:11:091,,,,,,,,,,,,,,,,,,,,,,,,,,,
2.148,-0.219,8.569,-0.001,-0.019,-0.023,41016,2017-03-14 01:14:11:591,,,,,,,,,,,,,,,,,,,,,,,,,,,
2.148,-0.248,8.577,-0.021,-0.012,0,41517,2017-03-14 01:14:12:092,,,,,,,,,,,,,,,,,,,,,,,,,,,
2.145,-0.222,8.614,-0.023,-0.081,-0.005,42016,2017-03-14 01:14:12:591,,,,,,,,,,,,,,,,,,,,,,,,,,,
2.171,-0.256,8.541,-0.012,-0.015,-0.041,42516,2017-03-14 01:14:13:091,,,,,,,,,,,,,,,,,,,,,,,,,,,
2.157,-0.254,8.591,0.01,0.052,-0.025,43016,2017-03-14 01:14:13:591,,,,,,,,,,,,,,,,,,,,,,,,,,,
2.199,-0.24,8.552,-0.028,-0.002,-0.036,43516,2017-03-14 01:14:14:091,,,,,,,,,,,,,,,,,,,,,,,,,,,
2.247,-0.225,8.583,-0.007,-0.037,0.001,44017,2017-03-14 01:14:14:592,,,,,,,,,,,,,,,,,,,,,,,,,,,
2.19,-0.181,8.601,-0.01,0.025,0.042,44516,2017-03-14 01:14:15:091,,,,,,,,,,,,,,,,,,,,,,,,,,,
2.139,-0.229,8.488,0.048,0.001,0.005,45016,2017-03-14 01:14:15:591,,,,,,,,,,,,,,,,,,,,,,,,,,,
2.192,-0.229,8.602,0.006,0.013,0.046,45516,2017-03-14 01:14:16:091,,,,,,,,,,,,,,,,,,,,,,,,,,,
2.18,-0.243,8.496,0,-0.032,-0.068,46016,2017-03-14 01:14:16:591,,,,,,,,,,,,,,,,,,,,,,,,,,,
2.092,-0.193,8.57,0.011,-0.012,-0.012,46516,2017-03-14 01:14:17:091,,,,,,,,,,,,,,,,,,,,,,,,,,,
2.153,-0.154,8.546,-0.037,-0.032,-0.036,47016,2017-03-14 01:14:17:591,,,,,,,,,,,,,,,,,,,,,,,,,,,
2.112,-0.223,8.587,0.008,-0.038,0.006,47516,2017-03-14 01:14:18:091,,,,,,,,,,,,,,,,,,,,,,,,,,,
2.156,-0.234,8.571,-0.014,0.003,0.009,48016,2017-03-14 01:14:18:591,,,,,,,,,,,,,,,,,,,,,,,,,,,
2.164,-0.201,8.532,-0.003,0.004,0.017,48515,2017-03-14 01:14:19:090,,,,,,,,,,,,,,,,,,,,,,,,,,,
2.175,-0.242,8.587,-0.015,0.027,-0.034,49016,2017-03-14 01:14:19:591,,,,,,,,,,,,,,,,,,,,,,,,,,,
2.168,-0.234,8.588,-0.002,-0.006,-0.008,49516,2017-03-14 01:14:20:091,,,,,,,,,,,,,,,,,,,,,,,,,,,
2.146,-0.246,8.567,-0.027,-0.017,0.014,50015,2017-03-14 01:14:20:590,,,,,,,,,,,,,,,,,,,,,,,,,,,
2.156,-0.258,8.548,-0.01,0.026,-0.02,50516,2017-03-14 01:14:21:091,,,,,,,,,,,,,,,,,,,,,,,,,,,
2.173,-0.268,8.583,-0.013,-0.005,0.006,51015,2017-03-14 01:14:21:590,,,,,,,,,,,,,,,,,,,,,,,,,,,
2.154,-0.224,8.559,-0.009,-0.026,0.053,51516,2017-03-14 01:14:22:091,,,,,,,,,,,,,,,,,,,,,,,,,,,
2.157,-0.234,8.585,-0.004,0.001,0.002,52016,2017-03-14 01:14:22:591,,,,,,,,,,,,,,,,,,,,,,,,,,,
2.142,-0.21,8.595,-0.018,-0.004,0.029,52516,2017-03-14 01:14:23:091,,,,,,,,,,,,,,,,,,,,,,,,,,,
2.155,-0.234,8.57,-0.012,-0.003,-0.015,53016,2017-03-14 01:14:23:591,,,,,,,,,,,,,,,,,,,,,,,,,,,
2.162,-0.232,8.579,0.026,0.003,-0.006,53516,2017-03-14 01:14:24:091,,,,,,,,,,,,,,,,,,,,,,,,,,,
2.137,-0.206,8.602,-0.008,0.013,0.02,54016,2017-03-14 01:14:24:591,,,,,,,,,,,,,,,,,,,,,,,,,,,
2.152,-0.226,8.557,-0.016,-0.007,0.016,54516,2017-03-14 01:14:25:091,,,,,,,,,,,,,,,,,,,,,,,,,,,
2.158,-0.219,8.537,-0.001,-0.007,-0.025,55016,2017-03-14 01:14:25:591,,,,,,,,,,,,,,,,,,,,,,,,,,,
2.146,-0.229,8.607,-0.003,-0.006,0.006,55516,2017-03-14 01:14:26:091,,,,,,,,,,,,,,,,,,,,,,,,,,,
2.17,-0.191,8.587,-0.004,-0.032,0.001,56015,2017-03-14 01:14:26:590,,,,,,,,,,,,,,,,,,,,,,,,,,,
2.158,-0.232,8.565,0.002,-0.007,-0.021,56516,2017-03-14 01:14:27:091,,,,,,,,,,,,,,,,,,,,,,,,,,,
2.149,-0.23,8.598,-0.006,-0.01,0.017,57017,2017-03-14 01:14:27:592,,,,,,,,,,,,,,,,,,,,,,,,,,,
2.157,-0.247,8.613,-0.004,-0.018,0.031,57516,2017-03-14 01:14:28:091,,,,,,,,,,,,,,,,,,,,,,,,,,,
2.16,-0.224,8.527,0.002,0.024,-0.046,58016,2017-03-14 01:14:28:591,,,,,,,,,,,,,,,,,,,,,,,,,,,
2.16,-0.234,8.609,0.001,-0.008,0.036,58516,2017-03-14 01:14:29:091,,,,,,,,,,,,,,,,,,,,,,,,,,,
2.141,-0.247,8.61,-0.016,-0.013,0.033,59016,2017-03-14 01:14:29:591,,,,,,,,,,,,,,,,,,,,,,,,,,,
2.158,-0.21,8.523,-0.005,0.019,0.025,59516,2017-03-14 01:14:30:091,,,,,,,,,,,,,,,,,,,,,,,,,,,
2.155,-0.234,8.597,-0.002,-0.014,0.051,60016,2017-03-14 01:14:30:591,,,,,,,,,,,,,,,,,,,,,,,,,,,
2.143,-0.236,8.624,-0.011,-0.01,0.04,60516,2017-03-14 01:14:31:091,,,,,,,,,,,,,,,,,,,,,,,,,,,
2.144,-0.207,8.553,-0.003,-0.027,0.016,61016,2017-03-14 01:14:31:591,,,,,,,,,,,,,,,,,,,,,,,,,,,
2.145,-0.222,8.532,-0.016,-0.002,0.031,61516,2017-03-14 01:14:32:091,,,,,,,,,,,,,,,,,,,,,,,,,,,
2.182,-0.236,8.548,0.024,-0.011,-0.027,62017,2017-03-14 01:14:32:592,,,,,,,,,,,,,,,,,,,,,,,,,,,
2.145,-0.237,8.573,-0.013,-0.023,-0.005,62517,2017-03-14 01:14:33:092,,,,,,,,,,,,,,,,,,,,,,,,,,,
2.163,-0.225,8.554,0.01,-0.02,-0.052,63016,2017-03-14 01:14:33:591,,,,,,,,,,,,,,,,,,,,,,,,,,,
2.168,-0.242,8.564,-0.028,0.01,-0.005,63516,2017-03-14 01:14:34:091,,,,,,,,,,,,,,,,,,,,,,,,,,,
2.137,-0.203,8.6,-0.045,-0.028,0.014,64016,2017-03-14 01:14:34:591,,,,,,,,,,,,,,,,,,,,,,,,,,,
2.142,-0.194,8.608,0.004,-0.019,-0.019,64516,2017-03-14 01:14:35:091,,,,,,,,,,,,,,,,,,,,,,,,,,,
2.149,-0.216,8.584,-0.008,-0.017,0.042,65016,2017-03-14 01:14:35:591,,,,,,,,,,,,,,,,,,,,,,,,,,,
2.101,-0.158,8.594,-0.108,-0.053,-0.04,65516,2017-03-14 01:14:36:091,,,,,,,,,,,,,,,,,,,,,,,,,,,
2.249,-0.234,8.49,0.139,0.021,0.009,66016,2017-03-14 01:14:36:591,,,,,,,,,,,,,,,,,,,,,,,,,,,
2.188,-0.217,8.542,0.035,-0.007,-0.015,66516,2017-03-14 01:14:37:091,,,,,,,,,,,,,,,,,,,,,,,,,,,
2.133,-0.238,8.586,-0.009,-0.03,0.011,67016,2017-03-14 01:14:37:591,,,,,,,,,,,,,,,,,,,,,,,,,,,
2.124,-0.221,8.588,-0.022,-0.02,0.018,67516,2017-03-14 01:14:38:091,,,,,,,,,,,,,,,,,,,,,,,,,,,
2.142,-0.213,8.579,-0.019,-0.002,-0.012,68016,2017-03-14 01:14:38:591,,,,,,,,,,,,,,,,,,,,,,,,,,,
2.106,-0.209,8.602,-0.014,-0.028,0.061,68516,2017-03-14 01:14:39:091,,,,,,,,,,,,,,,,,,,,,,,,,,,
2.133,-0.22,8.596,-0.008,0.014,0.022,69016,2017-03-14 01:14:39:591,,,,,,,,,,,,,,,,,,,,,,,,,,,
2.12,-0.228,8.601,0.012,-0.014,0,69517,2017-03-14 01:14:40:092,,,,,,,,,,,,,,,,,,,,,,,,,,,
2.13,-0.216,8.589,-0.003,-0.024,-0.001,70017,2017-03-14 01:14:40:592,,,,,,,,,,,,,,,,,,,,,,,,,,,
2.13,-0.207,8.561,-0.023,-0.018,-0.012,70516,2017-03-14 01:14:41:091,,,,,,,,,,,,,,,,,,,,,,,,,,,
2.139,-0.215,8.595,0.009,-0.019,0.018,71017,2017-03-14 01:14:41:592,,,,,,,,,,,,,,,,,,,,,,,,,,,
2.149,-0.265,8.532,-0.02,-0.02,0.006,71517,2017-03-14 01:14:42:092,,,,,,,,,,,,,,,,,,,,,,,,,,,
2.131,-0.212,8.59,-0.012,0.01,0.007,72016,2017-03-14 01:14:42:591,,,,,,,,,,,,,,,,,,,,,,,,,,,
2.133,-0.241,8.576,0.014,-0.013,-0.011,72516,2017-03-14 01:14:43:091,,,,,,,,,,,,,,,,,,,,,,,,,,,
2.132,-0.23,8.583,-0.002,-0.008,0.016,73016,2017-03-14 01:14:43:591,,,,,,,,,,,,,,,,,,,,,,,,,,,
2.136,-0.235,8.593,0.009,0.01,0.001,73516,2017-03-14 01:14:44:091,,,,,,,,,,,,,,,,,,,,,,,,,,,
2.137,-0.237,8.565,-0.001,0.002,0.016,74016,2017-03-14 01:14:44:591,,,,,,,,,,,,,,,,,,,,,,,,,,,
2.123,-0.217,8.597,-0.004,0.011,-0.024,74516,2017-03-14 01:14:45:091,,,,,,,,,,,,,,,,,,,,,,,,,,,
2.142,-0.217,8.577,0.012,0.002,0,75016,2017-03-14 01:14:45:591,,,,,,,,,,,,,,,,,,,,,,,,,,,
2.115,-0.217,8.552,0.001,0.001,-0.029,75516,2017-03-14 01:14:46:091,,,,,,,,,,,,,,,,,,,,,,,,,,,
2.124,-0.219,8.577,-0.016,-0.011,0,76016,2017-03-14 01:14:46:591,,,,,,,,,,,,,,,,,,,,,,,,,,,
2.126,-0.218,8.593,-0.005,-0.003,0.015,76516,2017-03-14 01:14:47:091,,,,,,,,,,,,,,,,,,,,,,,,,,,
2.123,-0.213,8.604,-0.014,0.001,0.03,77017,2017-03-14 01:14:47:592,,,,,,,,,,,,,,,,,,,,,,,,,,,
2.123,-0.193,8.607,-0.012,0.011,0.001,77516,2017-03-14 01:14:48:091,,,,,,,,,,,,,,,,,,,,,,,,,,,
2.141,-0.223,8.59,-0.017,-0.02,-0.012,78017,2017-03-14 01:14:48:592,,,,,,,,,,,,,,,,,,,,,,,,,,,
2.148,-0.2,8.578,0.016,0.013,0.004,78516,2017-03-14 01:14:49:091,,,,,,,,,,,,,,,,,,,,,,,,,,,
2.124,-0.234,8.555,-0.012,-0.016,-0.015,79016,2017-03-14 01:14:49:591,,,,,,,,,,,,,,,,,,,,,,,,,,,
2.132,-0.205,8.575,-0.01,-0.002,0.022,79516,2017-03-14 01:14:50:091,,,,,,,,,,,,,,,,,,,,,,,,,,,
2.112,-0.229,8.583,-0.02,-0.01,0.005,80018,2017-03-14 01:14:50:593,,,,,,,,,,,,,,,,,,,,,,,,,,,
2.108,-0.226,8.579,-0.018,-0.001,-0.002,80516,2017-03-14 01:14:51:091,,,,,,,,,,,,,,,,,,,,,,,,,,,
2.142,-0.225,8.59,0.002,-0.011,0.001,81016,2017-03-14 01:14:51:591,,,,,,,,,,,,,,,,,,,,,,,,,,,
2.12,-0.217,8.588,-0.018,-0.014,-0.002,81516,2017-03-14 01:14:52:091,,,,,,,,,,,,,,,,,,,,,,,,,,,
2.123,-0.226,8.561,-0.002,-0.001,-0.002,82016,2017-03-14 01:14:52:591,,,,,,,,,,,,,,,,,,,,,,,,,,,
2.119,-0.212,8.548,0,0.011,0.007,82516,2017-03-14 01:14:53:091,,,,,,,,,,,,,,,,,,,,,,,,,,,
2.114,-0.217,8.547,-0.012,0.006,-0.029,83017,2017-03-14 01:14:53:592,,,,,,,,,,,,,,,,,,,,,,,,,,,
2.145,-0.228,8.581,-0.008,0.004,0.01,83516,2017-03-14 01:14:54:091,,,,,,,,,,,,,,,,,,,,,,,,,,,
2.127,-0.228,8.598,-0.011,0.006,-0.02,84015,2017-03-14 01:14:54:590,,,,,,,,,,,,,,,,,,,,,,,,,,,
2.121,-0.212,8.536,0.008,0.036,0.001,84516,2017-03-14 01:14:55:091,,,,,,,,,,,,,,,,,,,,,,,,,,,
2.139,-0.211,8.563,0.009,0.01,-0.014,85016,2017-03-14 01:14:55:591,,,,,,,,,,,,,,,,,,,,,,,,,,,
2.131,-0.224,8.577,-0.002,-0.009,-0.004,85516,2017-03-14 01:14:56:091,,,,,,,,,,,,,,,,,,,,,,,,,,,
2.121,-0.201,8.564,0.007,-0.003,0.038,86016,2017-03-14 01:14:56:591,,,,,,,,,,,,,,,,,,,,,,,,,,,
2.113,-0.246,8.582,-0.014,0.018,0.005,86516,2017-03-14 01:14:57:091,,,,,,,,,,,,,,,,,,,,,,,,,,,
2.145,-0.21,8.558,0.011,0.015,-0.02,87016,2017-03-14 01:14:57:591,,,,,,,,,,,,,,,,,,,,,,,,,,,
2.151,-0.211,8.578,-0.001,0.011,-0.018,87516,2017-03-14 01:14:58:091,,,,,,,,,,,,,,,,,,,,,,,,,,,
2.111,-0.205,8.564,-0.016,-0.024,0.025,88016,2017-03-14 01:14:58:591,,,,,,,,,,,,,,,,,,,,,,,,,,,
2.136,-0.234,8.585,-0.002,0.006,-0.019,88516,2017-03-14 01:14:59:091,,,,,,,,,,,,,,,,,,,,,,,,,,,
2.112,-0.235,8.577,-0.023,-0.007,-0.002,89016,2017-03-14 01:14:59:591,,,,,,,,,,,,,,,,,,,,,,,,,,,
2.148,-0.23,8.572,0.002,0.017,0,89517,2017-03-14 01:15:00:092,,,,,,,,,,,,,,,,,,,,,,,,,,,
2.141,-0.217,8.576,0.017,-0.001,-0.012,90016,2017-03-14 01:15:00:591,,,,,,,,,,,,,,,,,,,,,,,,,,,
2.151,-0.217,8.585,-0.022,-0.008,0,90516,2017-03-14 01:15:01:091,,,,,,,,,,,,,,,,,,,,,,,,,,,
2.129,-0.232,8.548,-0.007,0.001,-0.029,91017,2017-03-14 01:15:01:592,,,,,,,,,,,,,,,,,,,,,,,,,,,
2.139,-0.207,8.566,-0.011,0.019,0.009,91517,2017-03-14 01:15:02:092,,,,,,,,,,,,,,,,,,,,,,,,,,,
2.12,-0.226,8.598,-0.004,0.015,-0.001,92016,2017-03-14 01:15:02:591,,,,,,,,,,,,,,,,,,,,,,,,,,,
2.123,-0.226,8.573,-0.015,0,-0.028,92516,2017-03-14 01:15:03:091,,,,,,,,,,,,,,,,,,,,,,,,,,,
2.131,-0.225,8.576,0.007,-0.001,0.005,93016,2017-03-14 01:15:03:591,,,,,,,,,,,,,,,,,,,,,,,,,,,
2.117,-0.218,8.577,-0.013,0.002,0.016,93516,2017-03-14 01:15:04:091,,,,,,,,,,,,,,,,,,,,,,,,,,,
2.135,-0.235,8.522,0.004,0.008,0.005,94016,2017-03-14 01:15:04:591,,,,,,,,,,,,,,,,,,,,,,,,,,,
2.137,-0.217,8.553,0.001,0.011,-0.012,94516,2017-03-14 01:15:05:091,,,,,,,,,,,,,,,,,,,,,,,,,,,
2.127,-0.216,8.576,-0.005,0.002,0.003,95016,2017-03-14 01:15:05:591,,,,,,,,,,,,,,,,,,,,,,,,,,,
2.136,-0.212,8.569,0,0.003,-0.014,95517,2017-03-14 01:15:06:092,,,,,,,,,,,,,,,,,,,,,,,,,,,
2.126,-0.238,8.61,-0.014,0.003,-0.019,96017,2017-03-14 01:15:06:592,,,,,,,,,,,,,,,,,,,,,,,,,,,
2.127,-0.217,8.593,0.003,0.004,0.015,96516,2017-03-14 01:15:07:091,,,,,,,,,,,,,,,,,,,,,,,,,,,
2.112,-0.218,8.576,-0.014,0.007,-0.005,97016,2017-03-14 01:15:07:591,,,,,,,,,,,,,,,,,,,,,,,,,,,
2.136,-0.235,8.566,0.01,-0.007,-0.005,97516,2017-03-14 01:15:08:091,,,,,,,,,,,,,,,,,,,,,,,,,,,
2.097,-0.248,8.587,-0.003,0.001,-0.006,98017,2017-03-14 01:15:08:592,,,,,,,,,,,,,,,,,,,,,,,,,,,
2.113,-0.242,8.584,-0.016,-0.013,0.007,98517,2017-03-14 01:15:09:092,,,,,,,,,,,,,,,,,,,,,,,,,,,
2.12,-0.22,8.588,0,0.004,0.004,99016,2017-03-14 01:15:09:591,,,,,,,,,,,,,,,,,,,,,,,,,,,
2.118,-0.229,8.547,-0.003,-0.018,0.004,99516,2017-03-14 01:15:10:091,,,,,,,,,,,,,,,,,,,,,,,,,,,
2.137,-0.225,8.526,-0.021,-0.001,0.013,100017,2017-03-14 01:15:10:592,,,,,,,,,,,,,,,,,,,,,,,,,,,
2.114,-0.256,8.553,-0.007,0.011,-0.007,100516,2017-03-14 01:15:11:091,,,,,,,,,,,,,,,,,,,,,,,,,,,
2.107,-0.22,8.57,-0.019,-0.008,-0.009,101016,2017-03-14 01:15:11:591,,,,,,,,,,,,,,,,,,,,,,,,,,,
2.12,-0.218,8.567,-0.008,0,-0.002,101517,2017-03-14 01:15:12:092,,,,,,,,,,,,,,,,,,,,,,,,,,,
2.112,-0.226,8.588,0.013,0.014,-0.001,102016,2017-03-14 01:15:12:591,,,,,,,,,,,,,,,,,,,,,,,,,,,
2.097,-0.204,8.578,0.002,-0.016,0.014,102516,2017-03-14 01:15:13:091,,,,,,,,,,,,,,,,,,,,,,,,,,,
2.125,-0.236,8.564,-0.008,-0.013,-0.009,103016,2017-03-14 01:15:13:591,,,,,,,,,,,,,,,,,,,,,,,,,,,
2.112,-0.231,8.571,-0.019,0.004,0.001,103516,2017-03-14 01:15:14:091,,,,,,,,,,,,,,,,,,,,,,,,,,,
2.097,-0.215,8.597,-0.007,-0.004,0.015,104017,2017-03-14 01:15:14:592,,,,,,,,,,,,,,,,,,,,,,,,,,,
2.133,-0.241,8.548,-0.018,-0.009,0.019,104517,2017-03-14 01:15:15:092,,,,,,,,,,,,,,,,,,,,,,,,,,,
2.123,-0.219,8.564,-0.006,0.003,-0.001,105017,2017-03-14 01:15:15:592,,,,,,,,,,,,,,,,,,,,,,,,,,,
2.114,-0.215,8.591,0.007,-0.004,0.037,105517,2017-03-14 01:15:16:092,,,,,,,,,,,,,,,,,,,,,,,,,,,
2.103,-0.222,8.573,0.005,0.004,0.012,106016,2017-03-14 01:15:16:591,,,,,,,,,,,,,,,,,,,,,,,,,,,
2.123,-0.229,8.547,-0.014,0.013,0,106516,2017-03-14 01:15:17:091,,,,,,,,,,,,,,,,,,,,,,,,,,,
2.115,-0.216,8.558,-0.007,0.01,-0.008,107017,2017-03-14 01:15:17:592,,,,,,,,,,,,,,,,,,,,,,,,,,,
2.112,-0.237,8.585,0.001,0.004,-0.004,107516,2017-03-14 01:15:18:091,,,,,,,,,,,,,,,,,,,,,,,,,,,
2.12,-0.231,8.567,-0.006,-0.008,0.013,108016,2017-03-14 01:15:18:591,,,,,,,,,,,,,,,,,,,,,,,,,,,
2.118,-0.223,8.558,-0.016,-0.004,0.033,108516,2017-03-14 01:15:19:091,,,,,,,,,,,,,,,,,,,,,,,,,,,
2.107,-0.234,8.553,-0.023,-0.009,-0.012,109017,2017-03-14 01:15:19:592,,,,,,,,,,,,,,,,,,,,,,,,,,,
2.114,-0.209,8.581,-0.003,-0.001,-0.011,109517,2017-03-14 01:15:20:092,,,,,,,,,,,,,,,,,,,,,,,,,,,
2.107,-0.235,8.579,0.005,0.006,0.028,110016,2017-03-14 01:15:20:591,,,,,,,,,,,,,,,,,,,,,,,,,,,
2.127,-0.23,8.571,-0.007,0.006,0.014,110516,2017-03-14 01:15:21:091,,,,,,,,,,,,,,,,,,,,,,,,,,,
2.127,-0.213,8.542,-0.003,0.008,-0.028,111016,2017-03-14 01:15:21:591,,,,,,,,,,,,,,,,,,,,,,,,,,,
2.126,-0.236,8.563,-0.006,0.001,0.015,111516,2017-03-14 01:15:22:091,,,,,,,,,,,,,,,,,,,,,,,,,,,
2.115,-0.224,8.593,-0.011,0.002,0.008,112016,2017-03-14 01:15:22:591,,,,,,,,,,,,,,,,,,,,,,,,,,,
2.132,-0.22,8.594,0.013,-0.01,0.007,112516,2017-03-14 01:15:23:091,,,,,,,,,,,,,,,,,,,,,,,,,,,
2.125,-0.217,8.59,-0.003,0.004,0.014,113016,2017-03-14 01:15:23:591,,,,,,,,,,,,,,,,,,,,,,,,,,,
2.105,-0.223,8.575,-0.011,-0.004,0.003,113516,2017-03-14 01:15:24:091,,,,,,,,,,,,,,,,,,,,,,,,,,,
2.106,-0.206,8.593,-0.009,0.001,-0.039,114017,2017-03-14 01:15:24:592,,,,,,,,,,,,,,,,,,,,,,,,,,,
2.107,-0.224,8.565,-0.015,-0.001,-0.008,114516,2017-03-14 01:15:25:091,,,,,,,,,,,,,,,,,,,,,,,,,,,
2.124,-0.207,8.542,0,0.013,-0.027,115016,2017-03-14 01:15:25:591,,,,,,,,,,,,,,,,,,,,,,,,,,,
2.125,-0.229,8.572,-0.004,-0.003,-0.002,115516,2017-03-14 01:15:26:091,,,,,,,,,,,,,,,,,,,,,,,,,,,
2.138,-0.255,8.564,-0.004,-0.001,-0.003,116017,2017-03-14 01:15:26:592,,,,,,,,,,,,,,,,,,,,,,,,,,,
2.13,-0.21,8.536,-0.003,0.013,-0.02,116516,2017-03-14 01:15:27:091,,,,,,,,,,,,,,,,,,,,,,,,,,,
2.125,-0.223,8.535,-0.004,-0.002,-0.022,117016,2017-03-14 01:15:27:591,,,,,,,,,,,,,,,,,,,,,,,,,,,
2.127,-0.219,8.593,-0.019,0.012,0.016,117516,2017-03-14 01:15:28:091,,,,,,,,,,,,,,,,,,,,,,,,,,,
2.129,-0.223,8.557,-0.004,-0.001,-0.01,118017,2017-03-14 01:15:28:592,,,,,,,,,,,,,,,,,,,,,,,,,,,
2.117,-0.217,8.591,-0.023,-0.014,-0.006,118515,2017-03-14 01:15:29:090,,,,,,,,,,,,,,,,,,,,,,,,,,,
2.118,-0.231,8.56,-0.018,0.009,0.007,119017,2017-03-14 01:15:29:592,,,,,,,,,,,,,,,,,,,,,,,,,,,
2.114,-0.223,8.565,-0.009,0.005,0.033,119517,2017-03-14 01:15:30:092,,,,,,,,,,,,,,,,,,,,,,,,,,,
2.095,-0.224,8.564,-0.036,0,0.001,120016,2017-03-14 01:15:30:591,,,,,,,,,,,,,,,,,,,,,,,,,,,
2.125,-0.226,8.569,-0.018,0.004,0.015,120516,2017-03-14 01:15:31:091,,,,,,,,,,,,,,,,,,,,,,,,,,,
2.115,-0.231,8.598,-0.003,-0.002,-0.013,121016,2017-03-14 01:15:31:591,,,,,,,,,,,,,,,,,,,,,,,,,,,
2.119,-0.2,8.541,-0.011,0.006,-0.003,121517,2017-03-14 01:15:32:092,,,,,,,,,,,,,,,,,,,,,,,,,,,
2.115,-0.222,8.563,-0.012,-0.007,0,122016,2017-03-14 01:15:32:591,,,,,,,,,,,,,,,,,,,,,,,,,,,
2.114,-0.216,8.578,0.002,-0.016,-0.018,122516,2017-03-14 01:15:33:091,,,,,,,,,,,,,,,,,,,,,,,,,,,
2.099,-0.228,8.583,-0.009,-0.002,-0.015,123016,2017-03-14 01:15:33:591,,,,,,,,,,,,,,,,,,,,,,,,,,,
2.097,-0.22,8.576,-0.026,-0.002,0.009,123516,2017-03-14 01:15:34:091,,,,,,,,,,,,,,,,,,,,,,,,,,,
2.111,-0.237,8.558,-0.011,-0.017,-0.008,124016,2017-03-14 01:15:34:591,,,,,,,,,,,,,,,,,,,,,,,,,,,
2.121,-0.207,8.566,-0.005,0.004,0.002,124516,2017-03-14 01:15:35:091,,,,,,,,,,,,,,,,,,,,,,,,,,,
2.123,-0.223,8.554,-0.018,-0.003,0.01,125016,2017-03-14 01:15:35:591,,,,,,,,,,,,,,,,,,,,,,,,,,,
2.099,-0.212,8.559,-0.021,0.011,-0.008,125516,2017-03-14 01:15:36:091,,,,,,,,,,,,,,,,,,,,,,,,,,,
2.117,-0.226,8.559,-0.008,0.001,-0.016,126018,2017-03-14 01:15:36:593,,,,,,,,,,,,,,,,,,,,,,,,,,,
2.106,-0.217,8.569,-0.005,-0.006,-0.002,126515,2017-03-14 01:15:37:090,,,,,,,,,,,,,,,,,,,,,,,,,,,
2.112,-0.223,8.576,-0.015,0.003,0.004,127016,2017-03-14 01:15:37:591,,,,,,,,,,,,,,,,,,,,,,,,,,,
2.103,-0.216,8.581,0,0.011,-0.026,127516,2017-03-14 01:15:38:091,,,,,,,,,,,,,,,,,,,,,,,,,,,
2.103,-0.204,8.563,-0.015,0.032,-0.027,128017,2017-03-14 01:15:38:592,,,,,,,,,,,,,,,,,,,,,,,,,,,
2.105,-0.212,8.557,-0.008,0.01,0.002,128516,2017-03-14 01:15:39:091,,,,,,,,,,,,,,,,,,,,,,,,,,,
2.125,-0.217,8.572,-0.033,0.004,0.028,129016,2017-03-14 01:15:39:591,,,,,,,,,,,,,,,,,,,,,,,,,,,
2.13,-0.236,8.555,0.018,-0.017,0.022,129516,2017-03-14 01:15:40:091,,,,,,,,,,,,,,,,,,,,,,,,,,,
2.117,-0.23,8.579,-0.002,0.011,0.008,130016,2017-03-14 01:15:40:591,,,,,,,,,,,,,,,,,,,,,,,,,,,
2.105,-0.232,8.567,-0.018,0.007,0.029,130516,2017-03-14 01:15:41:091,,,,,,,,,,,,,,,,,,,,,,,,,,,
2.148,-0.212,8.554,-0.027,-0.007,-0.016,131019,2017-03-14 01:15:41:594,,,,,,,,,,,,,,,,,,,,,,,,,,,
2.129,-0.235,8.573,0.005,0.006,-0.005,131516,2017-03-14 01:15:42:091,,,,,,,,,,,,,,,,,,,,,,,,,,,
2.118,-0.203,8.572,-0.014,-0.004,0.003,132017,2017-03-14 01:15:42:592,,,,,,,,,,,,,,,,,,,,,,,,,,,
2.13,-0.199,8.567,-0.009,0.008,-0.013,132516,2017-03-14 01:15:43:091,,,,,,,,,,,,,,,,,,,,,,,,,,,
2.107,-0.222,8.552,-0.014,0.003,0.003,133016,2017-03-14 01:15:43:591,,,,,,,,,,,,,,,,,,,,,,,,,,,
2.127,-0.211,8.563,-0.002,0.012,0.043,133516,2017-03-14 01:15:44:091,,,,,,,,,,,,,,,,,,,,,,,,,,,
2.111,-0.213,8.597,-0.015,0,0.001,134016,2017-03-14 01:15:44:591,,,,,,,,,,,,,,,,,,,,,,,,,,,
2.125,-0.228,8.576,0,0.011,-0.042,134516,2017-03-14 01:15:45:091,,,,,,,,,,,,,,,,,,,,,,,,,,,
2.119,-0.22,8.572,0.002,-0.002,0.007,135016,2017-03-14 01:15:45:591,,,,,,,,,,,,,,,,,,,,,,,,,,,
2.139,-0.223,8.566,-0.007,0.001,-0.006,135516,2017-03-14 01:15:46:091,,,,,,,,,,,,,,,,,,,,,,,,,,,
2.113,-0.224,8.577,0.002,-0.029,-0.005,136016,2017-03-14 01:15:46:591,,,,,,,,,,,,,,,,,,,,,,,,,,,
2.126,-0.224,8.589,0.006,-0.013,0.011,136516,2017-03-14 01:15:47:091,,,,,,,,,,,,,,,,,,,,,,,,,,,
2.139,-0.197,8.554,0.02,-0.012,-0.004,137016,2017-03-14 01:15:47:591,,,,,,,,,,,,,,,,,,,,,,,,,,,
2.124,-0.232,8.554,-0.003,0.01,0.006,137517,2017-03-14 01:15:48:092,,,,,,,,,,,,,,,,,,,,,,,,,,,
2.113,-0.236,8.571,-0.013,-0.016,0.003,138017,2017-03-14 01:15:48:592,,,,,,,,,,,,,,,,,,,,,,,,,,,
2.136,-0.212,8.581,0.01,0.003,0.003,138516,2017-03-14 01:15:49:091,,,,,,,,,,,,,,,,,,,,,,,,,,,
2.115,-0.24,8.569,0.018,-0.01,0.004,139017,2017-03-14 01:15:49:592,,,,,,,,,,,,,,,,,,,,,,,,,,,
2.108,-0.224,8.564,-0.008,-0.012,-0.016,139516,2017-03-14 01:15:50:091,,,,,,,,,,,,,,,,,,,,,,,,,,,
2.126,-0.229,8.567,0.001,-0.008,-0.001,140016,2017-03-14 01:15:50:591,,,,,,,,,,,,,,,,,,,,,,,,,,,
2.113,-0.224,8.577,-0.007,0,0.01,140517,2017-03-14 01:15:51:092,,,,,,,,,,,,,,,,,,,,,,,,,,,
2.136,-0.205,8.596,-0.01,-0.01,0.016,141016,2017-03-14 01:15:51:591,,,,,,,,,,,,,,,,,,,,,,,,,,,
2.107,-0.225,8.567,-0.013,-0.01,-0.001,141516,2017-03-14 01:15:52:091,,,,,,,,,,,,,,,,,,,,,,,,,,,
2.109,-0.215,8.582,-0.005,0.009,0.009,142017,2017-03-14 01:15:52:592,,,,,,,,,,,,,,,,,,,,,,,,,,,
2.124,-0.211,8.571,0.011,-0.01,-0.013,142516,2017-03-14 01:15:53:091,,,,,,,,,,,,,,,,,,,,,,,,,,,
2.088,-0.235,8.576,-0.001,-0.001,0.007,143016,2017-03-14 01:15:53:591,,,,,,,,,,,,,,,,,,,,,,,,,,,
2.111,-0.229,8.553,-0.008,-0.009,-0.019,143516,2017-03-14 01:15:54:091,,,,,,,,,,,,,,,,,,,,,,,,,,,
2.143,-0.219,8.537,0.021,0,-0.033,144016,2017-03-14 01:15:54:591,,,,,,,,,,,,,,,,,,,,,,,,,,,
2.141,-0.232,8.561,-0.007,-0.005,0.019,144516,2017-03-14 01:15:55:091,,,,,,,,,,,,,,,,,,,,,,,,,,,
2.13,-0.229,8.588,-0.007,-0.003,-0.014,145016,2017-03-14 01:15:55:591,,,,,,,,,,,,,,,,,,,,,,,,,,,
2.123,-0.232,8.578,0.005,-0.008,0.008,145516,2017-03-14 01:15:56:091,,,,,,,,,,,,,,,,,,,,,,,,,,,
2.107,-0.223,8.578,-0.002,0.012,0.005,146016,2017-03-14 01:15:56:591,,,,,,,,,,,,,,,,,,,,,,,,,,,
2.139,-0.247,8.582,-0.009,-0.004,0.015,146516,2017-03-14 01:15:57:091,,,,,,,,,,,,,,,,,,,,,,,,,,,
2.126,-0.217,8.567,0.007,0.005,-0.008,147016,2017-03-14 01:15:57:591,,,,,,,,,,,,,,,,,,,,,,,,,,,
2.129,-0.217,8.575,0.007,0.006,-0.002,147516,2017-03-14 01:15:58:091,,,,,,,,,,,,,,,,,,,,,,,,,,,
2.123,-0.216,8.572,0.008,0.002,0.004,148016,2017-03-14 01:15:58:591,,,,,,,,,,,,,,,,,,,,,,,,,,,
2.127,-0.219,8.603,0.003,0.01,-0.004,148516,2017-03-14 01:15:59:091,,,,,,,,,,,,,,,,,,,,,,,,,,,
2.112,-0.223,8.587,-0.007,-0.002,0.007,149016,2017-03-14 01:15:59:591,,,,,,,,,,,,,,,,,,,,,,,,,,,
2.117,-0.222,8.591,-0.001,0.005,0.009,149517,2017-03-14 01:16:00:092,,,,,,,,,,,,,,,,,,,,,,,,,,,
2.137,-0.231,8.578,0.006,-0.009,0.004,150020,2017-03-14 01:16:00:595,,,,,,,,,,,,,,,,,,,,,,,,,,,
2.131,-0.242,8.583,-0.011,-0.007,0.001,150517,2017-03-14 01:16:01:092,,,,,,,,,,,,,,,,,,,,,,,,,,,
2.118,-0.195,8.571,0.006,0.02,-0.002,151016,2017-03-14 01:16:01:591,,,,,,,,,,,,,,,,,,,,,,,,,,,
2.118,-0.219,8.563,0.003,-0.004,0.005,151516,2017-03-14 01:16:02:091,,,,,,,,,,,,,,,,,,,,,,,,,,,
2.121,-0.209,8.59,0.025,0.001,0.005,152016,2017-03-14 01:16:02:591,,,,,,,,,,,,,,,,,,,,,,,,,,,
2.115,-0.206,8.548,-0.004,0.011,-0.027,152516,2017-03-14 01:16:03:091,,,,,,,,,,,,,,,,,,,,,,,,,,,
2.125,-0.222,8.573,-0.004,-0.004,0.003,153016,2017-03-14 01:16:03:591,,,,,,,,,,,,,,,,,,,,,,,,,,,
2.13,-0.23,8.549,-0.005,0,0.029,153516,2017-03-14 01:16:04:091,,,,,,,,,,,,,,,,,,,,,,,,,,,
2.113,-0.232,8.555,-0.004,-0.015,-0.023,154016,2017-03-14 01:16:04:591,,,,,,,,,,,,,,,,,,,,,,,,,,,
2.111,-0.226,8.594,-0.005,-0.016,0.018,154516,2017-03-14 01:16:05:091,,,,,,,,,,,,,,,,,,,,,,,,,,,
2.139,-0.22,8.587,0.02,-0.004,0.007,155016,2017-03-14 01:16:05:591,,,,,,,,,,,,,,,,,,,,,,,,,,,
2.135,-0.228,8.577,-0.011,0,0.018,155516,2017-03-14 01:16:06:091,,,,,,,,,,,,,,,,,,,,,,,,,,,
2.133,-0.219,8.56,-0.003,0.01,-0.02,156016,2017-03-14 01:16:06:591,,,,,,,,,,,,,,,,,,,,,,,,,,,
2.139,-0.238,8.591,-0.005,-0.021,0.04,156517,2017-03-14 01:16:07:092,,,,,,,,,,,,,,,,,,,,,,,,,,,
2.113,-0.23,8.571,-0.012,-0.006,-0.004,157016,2017-03-14 01:16:07:591,,,,,,,,,,,,,,,,,,,,,,,,,,,
2.139,-0.212,8.573,-0.006,0.008,0.015,157516,2017-03-14 01:16:08:091,,,,,,,,,,,,,,,,,,,,,,,,,,,
2.131,-0.246,8.591,0.007,-0.002,-0.025,158016,2017-03-14 01:16:08:591,,,,,,,,,,,,,,,,,,,,,,,,,,,
2.124,-0.212,8.597,0.018,0.002,-0.02,158516,2017-03-14 01:16:09:091,,,,,,,,,,,,,,,,,,,,,,,,,,,
2.125,-0.219,8.598,-0.001,-0.012,0.001,159016,2017-03-14 01:16:09:591,,,,,,,,,,,,,,,,,,,,,,,,,,,
2.123,-0.212,8.578,-0.025,0.005,-0.027,159517,2017-03-14 01:16:10:092,,,,,,,,,,,,,,,,,,,,,,,,,,,
2.13,-0.218,8.564,-0.003,-0.01,-0.001,160016,2017-03-14 01:16:10:591,,,,,,,,,,,,,,,,,,,,,,,,,,,
2.124,-0.213,8.585,0.006,0.004,-0.005,160516,2017-03-14 01:16:11:091,,,,,,,,,,,,,,,,,,,,,,,,,,,
2.131,-0.222,8.564,0.007,0.011,-0.024,161016,2017-03-14 01:16:11:591,,,,,,,,,,,,,,,,,,,,,,,,,,,
2.117,-0.249,8.585,-0.008,-0.022,0.001,161516,2017-03-14 01:16:12:091,,,,,,,,,,,,,,,,,,,,,,,,,,,
2.132,-0.23,8.541,0.002,-0.019,-0.003,162016,2017-03-14 01:16:12:591,,,,,,,,,,,,,,,,,,,,,,,,,,,
2.131,-0.219,8.59,0.002,0.003,-0.022,162516,2017-03-14 01:16:13:091,,,,,,,,,,,,,,,,,,,,,,,,,,,
2.111,-0.231,8.569,-0.008,0.001,0.035,163016,2017-03-14 01:16:13:591,,,,,,,,,,,,,,,,,,,,,,,,,,,
2.126,-0.229,8.569,-0.006,0.003,0.011,163516,2017-03-14 01:16:14:091,,,,,,,,,,,,,,,,,,,,,,,,,,,
2.146,-0.224,8.555,0.02,-0.005,-0.011,164016,2017-03-14 01:16:14:591,,,,,,,,,,,,,,,,,,,,,,,,,,,
2.123,-0.223,8.566,0.001,-0.001,0.009,164516,2017-03-14 01:16:15:091,,,,,,,,,,,,,,,,,,,,,,,,,,,
2.113,-0.23,8.582,-0.002,-0.006,-0.013,165016,2017-03-14 01:16:15:591,,,,,,,,,,,,,,,,,,,,,,,,,,,
2.131,-0.216,8.563,0.006,-0.01,-0.006,165516,2017-03-14 01:16:16:091,,,,,,,,,,,,,,,,,,,,,,,,,,,
2.135,-0.237,8.59,-0.009,0.004,0.014,166016,2017-03-14 01:16:16:591,,,,,,,,,,,,,,,,,,,,,,,,,,,
2.125,-0.229,8.565,0.011,-0.004,0.001,166516,2017-03-14 01:16:17:091,,,,,,,,,,,,,,,,,,,,,,,,,,,
2.113,-0.247,8.569,0.021,-0.012,-0.009,167016,2017-03-14 01:16:17:591,,,,,,,,,,,,,,,,,,,,,,,,,,,
2.137,-0.224,8.558,0.007,0.009,-0.01,167516,2017-03-14 01:16:18:091,,,,,,,,,,,,,,,,,,,,,,,,,,,
2.115,-0.218,8.585,-0.016,0.006,0.007,168016,2017-03-14 01:16:18:591,,,,,,,,,,,,,,,,,,,,,,,,,,,
2.112,-0.25,8.541,0.004,-0.002,-0.006,168520,2017-03-14 01:16:19:095,,,,,,,,,,,,,,,,,,,,,,,,,,,
2.142,-0.226,8.584,0.018,-0.006,0.017,169016,2017-03-14 01:16:19:591,,,,,,,,,,,,,,,,,,,,,,,,,,,
2.111,-0.229,8.581,0.019,-0.006,0.002,169516,2017-03-14 01:16:20:091,,,,,,,,,,,,,,,,,,,,,,,,,,,
2.123,-0.174,8.551,-0.005,0.007,0.017,170017,2017-03-14 01:16:20:592,,,,,,,,,,,,,,,,,,,,,,,,,,,
2.117,-0.224,8.59,-0.014,-0.017,0.002,170516,2017-03-14 01:16:21:091,,,,,,,,,,,,,,,,,,,,,,,,,,,
2.119,-0.203,8.548,-0.001,0.015,-0.02,171016,2017-03-14 01:16:21:591,,,,,,,,,,,,,,,,,,,,,,,,,,,
2.121,-0.212,8.569,0.01,0.006,0.001,171516,2017-03-14 01:16:22:091,,,,,,,,,,,,,,,,,,,,,,,,,,,
2.107,-0.218,8.578,-0.015,0.017,0.007,172016,2017-03-14 01:16:22:591,,,,,,,,,,,,,,,,,,,,,,,,,,,
2.09,-0.206,8.54,-0.031,-0.033,0.001,172516,2017-03-14 01:16:23:091,,,,,,,,,,,,,,,,,,,,,,,,,,,
2.1,-0.193,8.588,-0.1,0.015,0.028,173017,2017-03-14 01:16:23:592,,,,,,,,,,,,,,,,,,,,,,,,,,,
2.179,-0.244,8.579,-0.004,-0.001,0.01,173517,2017-03-14 01:16:24:092,,,,,,,,,,,,,,,,,,,,,,,,,,,
2.131,-0.151,8.555,-0.002,-0.064,0.027,174016,2017-03-14 01:16:24:591,,,,,,,,,,,,,,,,,,,,,,,,,,,
2.117,-0.185,8.5,0.006,0.014,-0.071,174516,2017-03-14 01:16:25:091,,,,,,,,,,,,,,,,,,,,,,,,,,,
2.163,-0.159,8.61,0.062,-0.008,-0.034,175017,2017-03-14 01:16:25:592,,,,,,,,,,,,,,,,,,,,,,,,,,,
2.115,-0.194,8.573,0.006,-0.007,0.009,175516,2017-03-14 01:16:26:091,,,,,,,,,,,,,,,,,,,,,,,,,,,
2.118,-0.193,8.555,0.003,-0.011,-0.003,176016,2017-03-14 01:16:26:591,,,,,,,,,,,,,,,,,,,,,,,,,,,
2.091,-0.215,8.572,0.018,0.001,0.01,176516,2017-03-14 01:16:27:091,,,,,,,,,,,,,,,,,,,,,,,,,,,
2.117,-0.21,8.582,0.005,-0.01,0,177017,2017-03-14 01:16:27:592,,,,,,,,,,,,,,,,,,,,,,,,,,,
2.125,-0.199,8.596,-0.001,0,0.006,177516,2017-03-14 01:16:28:091,,,,,,,,,,,,,,,,,,,,,,,,,,,
2.1,-0.198,8.565,-0.006,-0.005,-0.004,178016,2017-03-14 01:16:28:591,,,,,,,,,,,,,,,,,,,,,,,,,,,
2.107,-0.183,8.585,0.002,0.015,-0.02,178516,2017-03-14 01:16:29:091,,,,,,,,,,,,,,,,,,,,,,,,,,,
2.126,-0.22,8.581,-0.006,0.026,-0.016,179019,2017-03-14 01:16:29:594,,,,,,,,,,,,,,,,,,,,,,,,,,,
2.132,-0.207,8.584,0.017,-0.008,0.01,179516,2017-03-14 01:16:30:091,,,,,,,,,,,,,,,,,,,,,,,,,,,
2.111,-0.176,8.588,-0.013,-0.015,0.01,180016,2017-03-14 01:16:30:591,,,,,,,,,,,,,,,,,,,,,,,,,,,
2.119,-0.201,8.602,-0.008,0.014,-0.015,180516,2017-03-14 01:16:31:091,,,,,,,,,,,,,,,,,,,,,,,,,,,
2.124,-0.187,8.563,-0.005,-0.017,-0.002,181016,2017-03-14 01:16:31:591,,,,,,,,,,,,,,,,,,,,,,,,,,,
2.119,-0.169,8.59,-0.002,0.022,0.018,181516,2017-03-14 01:16:32:091,,,,,,,,,,,,,,,,,,,,,,,,,,,
2.136,-0.2,8.57,-0.013,-0.023,0.015,182017,2017-03-14 01:16:32:592,,,,,,,,,,,,,,,,,,,,,,,,,,,
2.085,-0.229,8.576,-0.034,-0.028,-0.003,182516,2017-03-14 01:16:33:091,,,,,,,,,,,,,,,,,,,,,,,,,,,
2.12,-0.198,8.595,-0.005,0.005,-0.006,183017,2017-03-14 01:16:33:592,,,,,,,,,,,,,,,,,,,,,,,,,,,
2.123,-0.206,8.57,0.012,0.007,-0.026,183516,2017-03-14 01:16:34:091,,,,,,,,,,,,,,,,,,,,,,,,,,,
2.123,-0.185,8.54,0.006,0.014,-0.024,184016,2017-03-14 01:16:34:591,,,,,,,,,,,,,,,,,,,,,,,,,,,
2.089,-0.185,8.577,-0.025,0.014,0.008,184516,2017-03-14 01:16:35:091,,,,,,,,,,,,,,,,,,,,,,,,,,,
2.145,-0.213,8.575,-0.015,-0.014,-0.007,185016,2017-03-14 01:16:35:591,,,,,,,,,,,,,,,,,,,,,,,,,,,
2.107,-0.177,8.572,0.011,0.003,-0.001,185517,2017-03-14 01:16:36:092,,,,,,,,,,,,,,,,,,,,,,,,,,,
2.109,-0.169,8.566,-0.001,0.023,-0.006,186017,2017-03-14 01:16:36:592,,,,,,,,,,,,,,,,,,,,,,,,,,,
2.112,-0.22,8.577,-0.001,-0.027,0.006,186516,2017-03-14 01:16:37:091,,,,,,,,,,,,,,,,,,,,,,,,,,,
2.118,-0.217,8.582,-0.01,0.003,-0.016,187016,2017-03-14 01:16:37:591,,,,,,,,,,,,,,,,,,,,,,,,,,,
2.136,-0.187,8.59,0.01,-0.014,0.015,187516,2017-03-14 01:16:38:091,,,,,,,,,,,,,,,,,,,,,,,,,,,
2.121,-0.17,8.557,0.006,0.002,-0.014,188016,2017-03-14 01:16:38:591,,,,,,,,,,,,,,,,,,,,,,,,,,,
2.108,-0.198,8.596,-0.01,-0.015,0.03,188517,2017-03-14 01:16:39:092,,,,,,,,,,,,,,,,,,,,,,,,,,,
2.126,-0.177,8.571,-0.015,-0.011,0.007,189016,2017-03-14 01:16:39:591,,,,,,,,,,,,,,,,,,,,,,,,,,,
2.114,-0.169,8.56,-0.003,0.018,-0.01,189516,2017-03-14 01:16:40:091,,,,,,,,,,,,,,,,,,,,,,,,,,,
2.119,-0.186,8.566,0,0.007,-0.005,190016,2017-03-14 01:16:40:591,,,,,,,,,,,,,,,,,,,,,,,,,,,
2.106,-0.197,8.589,-0.003,-0.001,-0.018,190516,2017-03-14 01:16:41:091,,,,,,,,,,,,,,,,,,,,,,,,,,,
2.12,-0.201,8.547,0.002,-0.014,0.002,191017,2017-03-14 01:16:41:592,,,,,,,,,,,,,,,,,,,,,,,,,,,
2.097,-0.189,8.558,-0.003,0.016,0.003,191516,2017-03-14 01:16:42:091,,,,,,,,,,,,,,,,,,,,,,,,,,,
2.114,-0.179,8.567,-0.02,-0.003,-0.003,192017,2017-03-14 01:16:42:592,,,,,,,,,,,,,,,,,,,,,,,,,,,
2.113,-0.206,8.571,-0.006,-0.01,-0.025,192517,2017-03-14 01:16:43:092,,,,,,,,,,,,,,,,,,,,,,,,,,,
2.102,-0.191,8.576,0.009,0.007,0.013,193017,2017-03-14 01:16:43:592,,,,,,,,,,,,,,,,,,,,,,,,,,,
2.112,-0.199,8.567,-0.01,0.011,-0.008,193517,2017-03-14 01:16:44:092,,,,,,,,,,,,,,,,,,,,,,,,,,,
2.107,-0.187,8.533,-0.011,0.003,-0.007,194016,2017-03-14 01:16:44:591,,,,,,,,,,,,,,,,,,,,,,,,,,,
2.123,-0.174,8.578,-0.014,0.013,0.014,194517,2017-03-14 01:16:45:092,,,,,,,,,,,,,,,,,,,,,,,,,,,
2.099,-0.177,8.577,-0.023,-0.005,0.012,195017,2017-03-14 01:16:45:592,,,,,,,,,,,,,,,,,,,,,,,,,,,
2.102,-0.18,8.566,-0.009,0.006,0.003,195516,2017-03-14 01:16:46:091,,,,,,,,,,,,,,,,,,,,,,,,,,,
2.118,-0.199,8.578,-0.016,-0.005,0.011,196016,2017-03-14 01:16:46:591,,,,,,,,,,,,,,,,,,,,,,,,,,,
2.112,-0.217,8.565,-0.011,-0.014,0.023,196516,2017-03-14 01:16:47:091,,,,,,,,,,,,,,,,,,,,,,,,,,,
2.097,-0.176,8.572,-0.008,0.005,-0.005,197017,2017-03-14 01:16:47:592,,,,,,,,,,,,,,,,,,,,,,,,,,,
2.117,-0.189,8.563,0.01,0,-0.006,197516,2017-03-14 01:16:48:091,,,,,,,,,,,,,,,,,,,,,,,,,,,
2.102,-0.185,8.551,0,-0.018,-0.012,198016,2017-03-14 01:16:48:591,,,,,,,,,,,,,,,,,,,,,,,,,,,
2.114,-0.18,8.563,0.005,-0.005,0.029,198516,2017-03-14 01:16:49:091,,,,,,,,,,,,,,,,,,,,,,,,,,,
2.093,-0.183,8.578,-0.007,-0.018,0.025,199017,2017-03-14 01:16:49:592,,,,,,,,,,,,,,,,,,,,,,,,,,,
2.108,-0.197,8.567,-0.003,-0.007,-0.002,199517,2017-03-14 01:16:50:092,,,,,,,,,,,,,,,,,,,,,,,,,,,
2.085,-0.182,8.546,0.016,-0.006,-0.012,200016,2017-03-14 01:16:50:591,,,,,,,,,,,,,,,,,,,,,,,,,,,
2.095,-0.189,8.559,0.003,-0.003,0.019,200516,2017-03-14 01:16:51:091,,,,,,,,,,,,,,,,,,,,,,,,,,,
2.097,-0.175,8.601,-0.012,-0.012,0.027,201017,2017-03-14 01:16:51:592,,,,,,,,,,,,,,,,,,,,,,,,,,,
2.108,-0.167,8.571,0.001,-0.002,0.01,201516,2017-03-14 01:16:52:091,,,,,,,,,,,,,,,,,,,,,,,,,,,
2.125,-0.197,8.585,-0.007,0.008,-0.016,202016,2017-03-14 01:16:52:591,,,,,,,,,,,,,,,,,,,,,,,,,,,
2.126,-0.206,8.591,0.015,-0.009,0.015,202517,2017-03-14 01:16:53:092,,,,,,,,,,,,,,,,,,,,,,,,,,,
2.115,-0.175,8.582,0,0.023,0.009,203016,2017-03-14 01:16:53:591,,,,,,,,,,,,,,,,,,,,,,,,,,,
2.102,-0.206,8.555,0,0.011,0.004,203516,2017-03-14 01:16:54:091,,,,,,,,,,,,,,,,,,,,,,,,,,,
2.079,-0.197,8.579,-0.027,-0.003,0.007,204016,2017-03-14 01:16:54:591,,,,,,,,,,,,,,,,,,,,,,,,,,,
2.107,-0.185,8.561,-0.002,0.011,-0.017,204516,2017-03-14 01:16:55:091,,,,,,,,,,,,,,,,,,,,,,,,,,,
2.115,-0.218,8.569,0.005,-0.002,-0.009,205017,2017-03-14 01:16:55:592,,,,,,,,,,,,,,,,,,,,,,,,,,,
2.106,-0.213,8.588,-0.015,-0.019,-0.01,205516,2017-03-14 01:16:56:091,,,,,,,,,,,,,,,,,,,,,,,,,,,
2.123,-0.201,8.539,0.007,-0.014,-0.031,206016,2017-03-14 01:16:56:591,,,,,,,,,,,,,,,,,,,,,,,,,,,
2.09,-0.203,8.563,-0.022,-0.018,-0.008,206517,2017-03-14 01:16:57:092,,,,,,,,,,,,,,,,,,,,,,,,,,,
2.127,-0.193,8.563,-0.008,-0.006,0,207016,2017-03-14 01:16:57:591,,,,,,,,,,,,,,,,,,,,,,,,,,,
2.101,-0.201,8.565,0.004,-0.007,-0.027,207516,2017-03-14 01:16:58:091,,,,,,,,,,,,,,,,,,,,,,,,,,,
2.089,-0.194,8.587,-0.023,0.001,0.016,208016,2017-03-14 01:16:58:591,,,,,,,,,,,,,,,,,,,,,,,,,,,
2.102,-0.2,8.57,-0.004,-0.018,-0.008,208516,2017-03-14 01:16:59:091,,,,,,,,,,,,,,,,,,,,,,,,,,,
2.091,-0.198,8.601,-0.007,0.002,-0.022,209016,2017-03-14 01:16:59:591,,,,,,,,,,,,,,,,,,,,,,,,,,,
2.1,-0.189,8.582,-0.011,0,0.009,209516,2017-03-14 01:17:00:091,,,,,,,,,,,,,,,,,,,,,,,,,,,
2.113,-0.213,8.553,-0.011,-0.001,0.004,210017,2017-03-14 01:17:00:592,,,,,,,,,,,,,,,,,,,,,,,,,,,
2.103,-0.198,8.565,-0.01,-0.014,-0.011,210516,2017-03-14 01:17:01:091,,,,,,,,,,,,,,,,,,,,,,,,,,,
2.109,-0.199,8.593,-0.019,-0.004,0.012,211017,2017-03-14 01:17:01:592,,,,,,,,,,,,,,,,,,,,,,,,,,,
2.099,-0.181,8.569,-0.01,0.01,0.004,211516,2017-03-14 01:17:02:091,,,,,,,,,,,,,,,,,,,,,,,,,,,
2.114,-0.198,8.579,0.005,-0.025,0.018,212016,2017-03-14 01:17:02:591,,,,,,,,,,,,,,,,,,,,,,,,,,,
2.097,-0.203,8.578,0.004,0.001,-0.013,212517,2017-03-14 01:17:03:092,,,,,,,,,,,,,,,,,,,,,,,,,,,
2.114,-0.209,8.59,0.017,-0.01,-0.013,213016,2017-03-14 01:17:03:591,,,,,,,,,,,,,,,,,,,,,,,,,,,
2.087,-0.164,8.583,-0.023,0.027,0.012,213516,2017-03-14 01:17:04:091,,,,,,,,,,,,,,,,,,,,,,,,,,,
2.103,-0.193,8.578,0.003,0.005,0.011,214016,2017-03-14 01:17:04:591,,,,,,,,,,,,,,,,,,,,,,,,,,,
2.111,-0.18,8.571,0.001,0.004,0,214516,2017-03-14 01:17:05:091,,,,,,,,,,,,,,,,,,,,,,,,,,,
2.1,-0.193,8.545,0.005,0,0.011,215016,2017-03-14 01:17:05:591,,,,,,,,,,,,,,,,,,,,,,,,,,,
2.105,-0.197,8.581,-0.004,-0.006,0.012,215516,2017-03-14 01:17:06:091,,,,,,,,,,,,,,,,,,,,,,,,,,,
2.107,-0.179,8.558,0.012,-0.011,-0.007,216017,2017-03-14 01:17:06:592,,,,,,,,,,,,,,,,,,,,,,,,,,,
2.112,-0.188,8.583,0.001,-0.003,0.018,216516,2017-03-14 01:17:07:091,,,,,,,,,,,,,,,,,,,,,,,,,,,
2.135,-0.197,8.57,-0.023,0.002,-0.009,217017,2017-03-14 01:17:07:592,,,,,,,,,,,,,,,,,,,,,,,,,,,
2.113,-0.194,8.559,0.002,0.003,-0.006,217516,2017-03-14 01:17:08:091,,,,,,,,,,,,,,,,,,,,,,,,,,,
2.076,-0.165,8.419,0.01,-0.059,0.006,218016,2017-03-14 01:17:08:591,,,,,,,,,,,,,,,,,,,,,,,,,,,
2.101,-0.258,8.736,0.032,0.073,-0.049,218516,2017-03-14 01:17:09:091,,,,,,,,,,,,,,,,,,,,,,,,,,,
2.098,-0.208,8.565,0.001,0,0.005,219016,2017-03-14 01:17:09:591,,,,,,,,,,,,,,,,,,,,,,,,,,,
2.086,-0.178,8.576,0.005,-0.002,0,219515,2017-03-14 01:17:10:090,,,,,,,,,,,,,,,,,,,,,,,,,,,
2.105,-0.206,8.619,-0.023,0.009,0.002,220016,2017-03-14 01:17:10:591,,,,,,,,,,,,,,,,,,,,,,,,,,,
2.097,-0.207,8.576,-0.008,-0.005,-0.012,220516,2017-03-14 01:17:11:091,,,,,,,,,,,,,,,,,,,,,,,,,,,
2.113,-0.198,8.581,0.01,0.017,-0.006,221016,2017-03-14 01:17:11:591,,,,,,,,,,,,,,,,,,,,,,,,,,,
2.102,-0.186,8.54,-0.006,0.033,-0.035,221516,2017-03-14 01:17:12:091,,,,,,,,,,,,,,,,,,,,,,,,,,,
2.119,-0.223,8.569,0.013,0.028,-0.003,222016,2017-03-14 01:17:12:591,,,,,,,,,,,,,,,,,,,,,,,,,,,
2.102,-0.209,8.579,-0.014,0.022,-0.008,222516,2017-03-14 01:17:13:091,,,,,,,,,,,,,,,,,,,,,,,,,,,
2.13,-0.21,8.557,0.018,-0.002,-0.012,223016,2017-03-14 01:17:13:591,,,,,,,,,,,,,,,,,,,,,,,,,,,
2.125,-0.189,8.567,0.015,0.014,-0.003,223517,2017-03-14 01:17:14:092,,,,,,,,,,,,,,,,,,,,,,,,,,,
2.114,-0.213,8.585,0.008,-0.003,-0.017,224016,2017-03-14 01:17:14:591,,,,,,,,,,,,,,,,,,,,,,,,,,,
2.105,-0.185,8.554,-0.004,-0.009,0,224517,2017-03-14 01:17:15:092,,,,,,,,,,,,,,,,,,,,,,,,,,,
2.121,-0.197,8.558,0.016,0.005,-0.016,225016,2017-03-14 01:17:15:591,,,,,,,,,,,,,,,,,,,,,,,,,,,
2.105,-0.198,8.572,-0.004,0.005,-0.007,225516,2017-03-14 01:17:16:091,,,,,,,,,,,,,,,,,,,,,,,,,,,
2.099,-0.203,8.56,-0.001,0.002,0.006,226016,2017-03-14 01:17:16:591,,,,,,,,,,,,,,,,,,,,,,,,,,,
2.123,-0.223,8.575,0.027,-0.012,-0.01,226517,2017-03-14 01:17:17:092,,,,,,,,,,,,,,,,,,,,,,,,,,,
2.109,-0.203,8.54,-0.003,0.007,-0.034,227016,2017-03-14 01:17:17:591,,,,,,,,,,,,,,,,,,,,,,,,,,,
2.099,-0.204,8.554,-0.005,-0.023,-0.02,227516,2017-03-14 01:17:18:091,,,,,,,,,,,,,,,,,,,,,,,,,,,
2.087,-0.207,8.551,0.003,0.007,-0.005,228016,2017-03-14 01:17:18:591,,,,,,,,,,,,,,,,,,,,,,,,,,,
2.12,-0.218,8.583,0.003,-0.01,-0.001,228517,2017-03-14 01:17:19:092,,,,,,,,,,,,,,,,,,,,,,,,,,,
2.13,-0.201,8.56,0.009,0.02,-0.023,229017,2017-03-14 01:17:19:592,,,,,,,,,,,,,,,,,,,,,,,,,,,
2.124,-0.229,8.567,-0.009,0.017,-0.022,229516,2017-03-14 01:17:20:091,,,,,,,,,,,,,,,,,,,,,,,,,,,
2.113,-0.2,8.575,-0.002,0.002,0.011,230017,2017-03-14 01:17:20:592,,,,,,,,,,,,,,,,,,,,,,,,,,,
2.121,-0.213,8.581,-0.015,0.003,0.017,230517,2017-03-14 01:17:21:092,,,,,,,,,,,,,,,,,,,,,,,,,,,
2.105,-0.203,8.582,0.018,-0.02,0.002,231016,2017-03-14 01:17:21:591,,,,,,,,,,,,,,,,,,,,,,,,,,,
2.103,-0.193,8.569,0.005,-0.004,-0.013,231517,2017-03-14 01:17:22:092,,,,,,,,,,,,,,,,,,,,,,,,,,,
2.103,-0.194,8.57,-0.005,0.013,-0.009,232016,2017-03-14 01:17:22:591,,,,,,,,,,,,,,,,,,,,,,,,,,,
2.126,-0.225,8.587,0.01,-0.023,0.024,232517,2017-03-14 01:17:23:092,,,,,,,,,,,,,,,,,,,,,,,,,,,
2.102,-0.211,8.567,0.008,0.011,-0.012,233016,2017-03-14 01:17:23:591,,,,,,,,,,,,,,,,,,,,,,,,,,,
2.089,-0.204,8.614,0.002,-0.005,0.01,233516,2017-03-14 01:17:24:091,,,,,,,,,,,,,,,,,,,,,,,,,,,
2.111,-0.297,8.628,-0.004,-0.082,0.055,234016,2017-03-14 01:17:24:591,,,,,,,,,,,,,,,,,,,,,,,,,,,
2.047,-0.243,8.588,-0.046,0.023,-0.001,234516,2017-03-14 01:17:25:091,,,,,,,,,,,,,,,,,,,,,,,,,,,
2.158,-0.166,8.624,0.036,-0.003,-0.022,235016,2017-03-14 01:17:25:591,,,,,,,,,,,,,,,,,,,,,,,,,,,
2.147,-0.158,8.565,0.003,-0.032,-0.041,235516,2017-03-14 01:17:26:091,,,,,,,,,,,,,,,,,,,,,,,,,,,
2.186,-0.159,8.541,0.055,-0.044,-0.031,236016,2017-03-14 01:17:26:591,,,,,,,,,,,,,,,,,,,,,,,,,,,
2.149,-0.106,8.591,0.071,-0.065,0.339,236516,2017-03-14 01:17:27:091,,,,,,,,,,,,,,,,,,,,,,,,,,,
2.112,-0.13,8.575,0.024,-0.006,0.012,237018,2017-03-14 01:17:27:593,,,,,,,,,,,,,,,,,,,,,,,,,,,
2.148,-0.2,8.575,-0.014,0.013,0.009,237516,2017-03-14 01:17:28:091,,,,,,,,,,,,,,,,,,,,,,,,,,,
2.161,-0.181,8.555,0.017,-0.004,0.006,238016,2017-03-14 01:17:28:591,,,,,,,,,,,,,,,,,,,,,,,,,,,
2.137,-0.219,8.557,0.022,0.003,-0.008,238516,2017-03-14 01:17:29:091,,,,,,,,,,,,,,,,,,,,,,,,,,,
2.1,-0.144,8.61,0.049,-0.014,-0.013,239016,2017-03-14 01:17:29:591,,,,,,,,,,,,,,,,,,,,,,,,,,,
2.046,-0.231,8.633,-0.066,-0.063,0.058,239516,2017-03-14 01:17:30:091,,,,,,,,,,,,,,,,,,,,,,,,,,,
2.135,-0.174,8.553,-0.016,-0.014,0.037,240016,2017-03-14 01:17:30:591,,,,,,,,,,,,,,,,,,,,,,,,,,,
2.131,0.056,8.558,-0.011,-0.059,-0.043,240516,2017-03-14 01:17:31:091,,,,,,,,,,,,,,,,,,,,,,,,,,,
2.088,-0.255,8.607,-0.03,-0.117,0.01,241016,2017-03-14 01:17:31:591,,,,,,,,,,,,,,,,,,,,,,,,,,,
2.044,-0.213,8.515,-0.067,-0.074,-0.072,241516,2017-03-14 01:17:32:091,,,,,,,,,,,,,,,,,,,,,,,,,,,
2.091,-0.092,8.591,-0.028,-0.016,-0.018,242017,2017-03-14 01:17:32:592,,,,,,,,,,,,,,,,,,,,,,,,,,,
2.147,-0.147,8.557,-0.025,0.01,-0.007,242516,2017-03-14 01:17:33:091,,,,,,,,,,,,,,,,,,,,,,,,,,,
2.088,-0.206,8.567,0.006,-0.032,0.018,243016,2017-03-14 01:17:33:591,,,,,,,,,,,,,,,,,,,,,,,,,,,
2.144,-0.144,8.63,0.053,0.053,0.017,243516,2017-03-14 01:17:34:091,,,,,,,,,,,,,,,,,,,,,,,,,,,
2.174,-0.168,8.496,0.035,0.026,-0.049,244016,2017-03-14 01:17:34:591,,,,,,,,,,,,,,,,,,,,,,,,,,,
2.135,-0.119,8.603,0.032,-0.001,0.001,244516,2017-03-14 01:17:35:091,,,,,,,,,,,,,,,,,,,,,,,,,,,
2.151,-0.139,8.541,-0.01,0.001,0.001,245016,2017-03-14 01:17:35:591,,,,,,,,,,,,,,,,,,,,,,,,,,,
2.121,-0.115,8.575,0.027,0.005,-0.006,245516,2017-03-14 01:17:36:091,,,,,,,,,,,,,,,,,,,,,,,,,,,
2.088,-0.126,8.57,0.005,-0.011,0.001,246017,2017-03-14 01:17:36:592,,,,,,,,,,,,,,,,,,,,,,,,,,,
2.117,-0.149,8.564,-0.005,-0.011,-0.003,246516,2017-03-14 01:17:37:091,,,,,,,,,,,,,,,,,,,,,,,,,,,
2.108,-0.127,8.593,0.014,-0.004,0.018,247016,2017-03-14 01:17:37:591,,,,,,,,,,,,,,,,,,,,,,,,,,,
2.124,-0.157,8.561,0.007,-0.011,-0.007,247516,2017-03-14 01:17:38:091,,,,,,,,,,,,,,,,,,,,,,,,,,,
2.089,-0.156,8.546,0.009,-0.004,-0.016,248017,2017-03-14 01:17:38:592,,,,,,,,,,,,,,,,,,,,,,,,,,,
2.107,-0.179,8.593,0.004,-0.011,-0.002,248516,2017-03-14 01:17:39:091,,,,,,,,,,,,,,,,,,,,,,,,,,,
2.111,-0.151,8.594,0.01,-0.007,-0.021,249016,2017-03-14 01:17:39:591,,,,,,,,,,,,,,,,,,,,,,,,,,,
2.109,-0.153,8.551,-0.006,-0.001,-0.021,249516,2017-03-14 01:17:40:091,,,,,,,,,,,,,,,,,,,,,,,,,,,
2.121,-0.138,8.582,-0.006,0.013,0.029,250016,2017-03-14 01:17:40:591,,,,,,,,,,,,,,,,,,,,,,,,,,,
2.117,-0.157,8.59,-0.015,0.03,-0.004,250516,2017-03-14 01:17:41:091,,,,,,,,,,,,,,,,,,,,,,,,,,,
2.127,-0.165,8.558,0.015,-0.005,-0.017,251016,2017-03-14 01:17:41:591,,,,,,,,,,,,,,,,,,,,,,,,,,,
2.112,-0.155,8.588,-0.003,0.007,0.013,251516,2017-03-14 01:17:42:091,,,,,,,,,,,,,,,,,,,,,,,,,,,
2.114,-0.144,8.576,-0.012,0.002,-0.015,252016,2017-03-14 01:17:42:591,,,,,,,,,,,,,,,,,,,,,,,,,,,
2.112,-0.158,8.581,-0.011,0.002,0.006,252517,2017-03-14 01:17:43:092,,,,,,,,,,,,,,,,,,,,,,,,,,,
2.107,-0.158,8.563,-0.01,-0.001,-0.006,253016,2017-03-14 01:17:43:591,,,,,,,,,,,,,,,,,,,,,,,,,,,
2.113,-0.139,8.579,0,0.014,0.021,253517,2017-03-14 01:17:44:092,,,,,,,,,,,,,,,,,,,,,,,,,,,
2.112,-0.143,8.563,0.012,-0.017,-0.001,254016,2017-03-14 01:17:44:591,,,,,,,,,,,,,,,,,,,,,,,,,,,
2.093,-0.132,8.561,0.003,-0.011,-0.001,254516,2017-03-14 01:17:45:091,,,,,,,,,,,,,,,,,,,,,,,,,,,
2.12,-0.15,8.581,0.013,0.005,0.013,255016,2017-03-14 01:17:45:591,,,,,,,,,,,,,,,,,,,,,,,,,,,
2.112,-0.144,8.59,-0.001,0.018,-0.005,255517,2017-03-14 01:17:46:092,,,,,,,,,,,,,,,,,,,,,,,,,,,
2.119,-0.174,8.583,0.004,-0.003,-0.004,256017,2017-03-14 01:17:46:592,,,,,,,,,,,,,,,,,,,,,,,,,,,
2.093,-0.142,8.584,-0.016,0.017,0.011,256517,2017-03-14 01:17:47:092,,,,,,,,,,,,,,,,,,,,,,,,,,,
2.115,-0.149,8.555,-0.009,0,-0.012,257016,2017-03-14 01:17:47:591,,,,,,,,,,,,,,,,,,,,,,,,,,,
2.107,-0.155,8.57,0.009,-0.003,-0.009,257516,2017-03-14 01:17:48:091,,,,,,,,,,,,,,,,,,,,,,,,,,,
2.082,-0.134,8.6,0.03,-0.005,-0.023,258016,2017-03-14 01:17:48:591,,,,,,,,,,,,,,,,,,,,,,,,,,,
2.097,-0.134,8.543,-0.012,0.014,-0.024,258516,2017-03-14 01:17:49:091,,,,,,,,,,,,,,,,,,,,,,,,,,,
2.107,-0.132,8.57,0.001,0.013,0.018,259017,2017-03-14 01:17:49:592,,,,,,,,,,,,,,,,,,,,,,,,,,,
2.118,-0.176,8.561,-0.024,-0.012,0.004,259516,2017-03-14 01:17:50:091,,,,,,,,,,,,,,,,,,,,,,,,,,,
2.095,-0.179,8.588,-0.013,-0.023,0.014,260016,2017-03-14 01:17:50:591,,,,,,,,,,,,,,,,,,,,,,,,,,,
2.115,-0.144,8.566,0.003,0.008,-0.003,260517,2017-03-14 01:17:51:092,,,,,,,,,,,,,,,,,,,,,,,,,,,
2.1,-0.133,8.598,0.007,-0.004,-0.016,261016,2017-03-14 01:17:51:591,,,,,,,,,,,,,,,,,,,,,,,,,,,
2.096,-0.157,8.583,0.005,0.01,-0.029,261516,2017-03-14 01:17:52:091,,,,,,,,,,,,,,,,,,,,,,,,,,,
2.082,-0.133,8.583,-0.032,0.02,0.014,262016,2017-03-14 01:17:52:591,,,,,,,,,,,,,,,,,,,,,,,,,,,
2.107,-0.157,8.576,-0.005,-0.001,0.006,262516,2017-03-14 01:17:53:091,,,,,,,,,,,,,,,,,,,,,,,,,,,
2.119,-0.163,8.565,0.005,-0.019,-0.001,263016,2017-03-14 01:17:53:591,,,,,,,,,,,,,,,,,,,,,,,,,,,
2.112,-0.146,8.553,-0.008,0.002,0.018,263516,2017-03-14 01:17:54:091,,,,,,,,,,,,,,,,,,,,,,,,,,,
2.118,-0.162,8.554,0.004,0,-0.017,264017,2017-03-14 01:17:54:592,,,,,,,,,,,,,,,,,,,,,,,,,,,
2.099,-0.142,8.563,-0.017,0.016,0.002,264516,2017-03-14 01:17:55:091,,,,,,,,,,,,,,,,,,,,,,,,,,,
2.111,-0.159,8.569,-0.016,0.022,-0.007,265017,2017-03-14 01:17:55:592,,,,,,,,,,,,,,,,,,,,,,,,,,,
2.111,-0.168,8.535,-0.005,-0.01,-0.028,265517,2017-03-14 01:17:56:092,,,,,,,,,,,,,,,,,,,,,,,,,,,
2.105,-0.161,8.555,0,0.009,-0.014,266016,2017-03-14 01:17:56:591,,,,,,,,,,,,,,,,,,,,,,,,,,,
2.114,-0.152,8.555,0.008,-0.012,0.002,266516,2017-03-14 01:17:57:091,,,,,,,,,,,,,,,,,,,,,,,,,,,
2.106,-0.149,8.564,-0.015,0.007,-0.006,267016,2017-03-14 01:17:57:591,,,,,,,,,,,,,,,,,,,,,,,,,,,
2.095,-0.134,8.593,-0.013,0.005,0.022,267516,2017-03-14 01:17:58:091,,,,,,,,,,,,,,,,,,,,,,,,,,,
2.136,-0.149,8.536,0.038,-0.016,0.038,268016,2017-03-14 01:17:58:591,,,,,,,,,,,,,,,,,,,,,,,,,,,
2.12,-0.127,8.552,-0.008,-0.007,-0.015,268516,2017-03-14 01:17:59:091,,,,,,,,,,,,,,,,,,,,,,,,,,,
2.099,-0.136,8.571,0.003,0.007,0.008,269016,2017-03-14 01:17:59:591,,,,,,,,,,,,,,,,,,,,,,,,,,,
2.099,-0.156,8.594,-0.01,-0.009,0.024,269516,2017-03-14 01:18:00:091,,,,,,,,,,,,,,,,,,,,,,,,,,,
2.112,-0.159,8.553,-0.012,0,0.009,270017,2017-03-14 01:18:00:592,,,,,,,,,,,,,,,,,,,,,,,,,,,
2.101,-0.157,8.551,0.017,0.011,0.014,270516,2017-03-14 01:18:01:091,,,,,,,,,,,,,,,,,,,,,,,,,,,
2.1,-0.157,8.564,-0.008,0.005,0.014,271016,2017-03-14 01:18:01:591,,,,,,,,,,,,,,,,,,,,,,,,,,,
2.102,-0.133,8.579,-0.008,0.015,0.008,271516,2017-03-14 01:18:02:091,,,,,,,,,,,,,,,,,,,,,,,,,,,
2.174,-0.198,8.543,-0.036,-0.009,-0.055,272016,2017-03-14 01:18:02:591,,,,,,,,,,,,,,,,,,,,,,,,,,,
2.113,-0.241,8.593,0.054,-0.015,0.006,272516,2017-03-14 01:18:03:091,,,,,,,,,,,,,,,,,,,,,,,,,,,
2.138,-0.222,8.584,0.013,0.005,-0.01,273016,2017-03-14 01:18:03:591,,,,,,,,,,,,,,,,,,,,,,,,,,,
2.117,-0.164,8.597,-0.028,-0.009,0.006,273516,2017-03-14 01:18:04:091,,,,,,,,,,,,,,,,,,,,,,,,,,,
2.123,-0.177,8.563,-0.01,0,-0.003,274016,2017-03-14 01:18:04:591,,,,,,,,,,,,,,,,,,,,,,,,,,,
2.158,-0.145,8.555,0.038,0.03,-0.013,274516,2017-03-14 01:18:05:091,,,,,,,,,,,,,,,,,,,,,,,,,,,
2.103,-0.126,8.579,-0.017,0.044,0.013,275017,2017-03-14 01:18:05:592,,,,,,,,,,,,,,,,,,,,,,,,,,,
2.108,-0.179,8.526,-0.005,-0.019,0.019,275516,2017-03-14 01:18:06:091,,,,,,,,,,,,,,,,,,,,,,,,,,,
2.108,-0.163,8.581,-0.016,-0.022,-0.024,276016,2017-03-14 01:18:06:591,,,,,,,,,,,,,,,,,,,,,,,,,,,
2.133,-0.159,8.555,0.016,0.009,-0.01,276516,2017-03-14 01:18:07:091,,,,,,,,,,,,,,,,,,,,,,,,,,,
2.13,-0.165,8.554,0.011,0.003,-0.005,277016,2017-03-14 01:18:07:591,,,,,,,,,,,,,,,,,,,,,,,,,,,
2.124,-0.175,8.585,0.003,0.013,0.002,277516,2017-03-14 01:18:08:091,,,,,,,,,,,,,,,,,,,,,,,,,,,
2.091,-0.145,8.528,-0.002,0.014,0.002,278016,2017-03-14 01:18:08:591,,,,,,,,,,,,,,,,,,,,,,,,,,,
2.112,-0.171,8.572,-0.003,-0.003,0.01,278517,2017-03-14 01:18:09:092,,,,,,,,,,,,,,,,,,,,,,,,,,,
2.12,-0.153,8.588,-0.012,0.003,-0.003,279016,2017-03-14 01:18:09:591,,,,,,,,,,,,,,,,,,,,,,,,,,,
2.103,-0.156,8.555,-0.002,0,-0.006,279516,2017-03-14 01:18:10:091,,,,,,,,,,,,,,,,,,,,,,,,,,,
2.105,-0.14,8.559,-0.008,0.029,-0.01,280016,2017-03-14 01:18:10:591,,,,,,,,,,,,,,,,,,,,,,,,,,,
2.12,-0.159,8.569,0.007,0.003,-0.003,280517,2017-03-14 01:18:11:092,,,,,,,,,,,,,,,,,,,,,,,,,,,
2.121,-0.18,8.575,-0.018,-0.002,-0.018,281016,2017-03-14 01:18:11:591,,,,,,,,,,,,,,,,,,,,,,,,,,,
2.109,-0.17,8.569,-0.005,-0.012,-0.005,281516,2017-03-14 01:18:12:091,,,,,,,,,,,,,,,,,,,,,,,,,,,
2.1,-0.161,8.555,-0.016,0.007,-0.001,282016,2017-03-14 01:18:12:591,,,,,,,,,,,,,,,,,,,,,,,,,,,
2.101,-0.163,8.528,-0.016,0.005,-0.037,282516,2017-03-14 01:18:13:091,,,,,,,,,,,,,,,,,,,,,,,,,,,
2.138,-0.159,8.537,-0.003,0.001,-0.001,283017,2017-03-14 01:18:13:592,,,,,,,,,,,,,,,,,,,,,,,,,,,
2.121,-0.171,8.559,-0.012,-0.002,0.014,283517,2017-03-14 01:18:14:092,,,,,,,,,,,,,,,,,,,,,,,,,,,
2.102,-0.133,8.557,-0.01,-0.015,0.008,284016,2017-03-14 01:18:14:591,,,,,,,,,,,,,,,,,,,,,,,,,,,
2.118,-0.174,8.569,0.017,0.02,0.026,284517,2017-03-14 01:18:15:092,,,,,,,,,,,,,,,,,,,,,,,,,,,
2.141,-0.175,8.567,-0.003,0.021,0.014,285016,2017-03-14 01:18:15:591,,,,,,,,,,,,,,,,,,,,,,,,,,,
2.119,-0.157,8.591,0.002,0.01,0.015,285516,2017-03-14 01:18:16:091,,,,,,,,,,,,,,,,,,,,,,,,,,,
2.095,-0.152,8.554,0.006,0.006,0.001,286016,2017-03-14 01:18:16:591,,,,,,,,,,,,,,,,,,,,,,,,,,,
2.111,-0.157,8.56,0.002,-0.017,-0.01,286517,2017-03-14 01:18:17:092,,,,,,,,,,,,,,,,,,,,,,,,,,,
2.125,-0.187,8.554,-0.006,-0.018,-0.005,287017,2017-03-14 01:18:17:592,,,,,,,,,,,,,,,,,,,,,,,,,,,
2.139,-0.192,8.582,-0.002,0.018,-0.007,287516,2017-03-14 01:18:18:091,,,,,,,,,,,,,,,,,,,,,,,,,,,
2.1,-0.162,8.571,0.027,-0.003,-0.003,288016,2017-03-14 01:18:18:591,,,,,,,,,,,,,,,,,,,,,,,,,,,
2.102,-0.15,8.56,-0.01,0.02,0.015,288516,2017-03-14 01:18:19:091,,,,,,,,,,,,,,,,,,,,,,,,,,,
2.123,-0.151,8.587,-0.016,0.01,-0.006,289016,2017-03-14 01:18:19:591,,,,,,,,,,,,,,,,,,,,,,,,,,,
2.088,-0.169,8.597,-0.009,0.003,0.012,289516,2017-03-14 01:18:20:091,,,,,,,,,,,,,,,,,,,,,,,,,,,
2.105,-0.185,8.522,-0.004,0.027,0.002,290016,2017-03-14 01:18:20:591,,,,,,,,,,,,,,,,,,,,,,,,,,,
2.107,-0.165,8.589,0.007,-0.008,-0.009,290516,2017-03-14 01:18:21:091,,,,,,,,,,,,,,,,,,,,,,,,,,,
2.148,-0.15,8.588,-0.015,-0.002,0.02,291016,2017-03-14 01:18:21:591,,,,,,,,,,,,,,,,,,,,,,,,,,,
2.121,-0.193,8.558,0.005,-0.003,0.001,291516,2017-03-14 01:18:22:091,,,,,,,,,,,,,,,,,,,,,,,,,,,
2.125,-0.138,8.588,0,0.011,-0.003,292017,2017-03-14 01:18:22:592,,,,,,,,,,,,,,,,,,,,,,,,,,,
2.146,-0.179,8.584,-0.008,-0.018,0.018,292517,2017-03-14 01:18:23:092,,,,,,,,,,,,,,,,,,,,,,,,,,,
2.112,-0.164,8.576,-0.009,-0.002,0.009,293016,2017-03-14 01:18:23:591,,,,,,,,,,,,,,,,,,,,,,,,,,,
2.108,-0.164,8.572,0.011,0.003,0.022,293516,2017-03-14 01:18:24:091,,,,,,,,,,,,,,,,,,,,,,,,,,,
2.139,-0.156,8.588,0.01,-0.024,-0.001,294017,2017-03-14 01:18:24:592,,,,,,,,,,,,,,,,,,,,,,,,,,,
2.117,-0.175,8.584,-0.004,-0.011,0.017,294516,2017-03-14 01:18:25:091,,,,,,,,,,,,,,,,,,,,,,,,,,,
2.132,-0.15,8.581,0.01,0.009,0.008,295016,2017-03-14 01:18:25:591,,,,,,,,,,,,,,,,,,,,,,,,,,,
2.097,-0.153,8.585,-0.026,0.007,0.001,295516,2017-03-14 01:18:26:091,,,,,,,,,,,,,,,,,,,,,,,,,,,
2.119,-0.165,8.589,0.014,0.017,-0.005,296016,2017-03-14 01:18:26:591,,,,,,,,,,,,,,,,,,,,,,,,,,,
2.123,-0.168,8.581,0.009,0.004,0.007,296516,2017-03-14 01:18:27:091,,,,,,,,,,,,,,,,,,,,,,,,,,,
2.138,-0.167,8.569,0.022,0.003,0.002,297016,2017-03-14 01:18:27:591,,,,,,,,,,,,,,,,,,,,,,,,,,,
2.093,-0.171,8.579,-0.022,0.008,-0.019,297517,2017-03-14 01:18:28:092,,,,,,,,,,,,,,,,,,,,,,,,,,,
2.108,-0.169,8.545,-0.006,0.003,-0.02,298016,2017-03-14 01:18:28:591,,,,,,,,,,,,,,,,,,,,,,,,,,,
2.072,-0.174,8.567,-0.045,0,0.002,298516,2017-03-14 01:18:29:091,,,,,,,,,,,,,,,,,,,,,,,,,,,
2.085,-0.161,8.573,0,-0.007,0.003,299016,2017-03-14 01:18:29:591,,,,,,,,,,,,,,,,,,,,,,,,,,,
2.126,-0.155,8.565,-0.039,0.027,-0.019,299516,2017-03-14 01:18:30:091,,,,,,,,,,,,,,,,,,,,,,,,,,,
2.109,-0.168,8.581,0.005,0.001,0.009,300016,2017-03-14 01:18:30:591,,,,,,,,,,,,,,,,,,,,,,,,,,,
2.12,-0.174,8.571,0.012,0.006,-0.009,300516,2017-03-14 01:18:31:091,,,,,,,,,,,,,,,,,,,,,,,,,,,
2.097,-0.183,8.578,0.007,-0.011,-0.01,301016,2017-03-14 01:18:31:591,,,,,,,,,,,,,,,,,,,,,,,,,,,
2.112,-0.17,8.578,-0.027,0.025,0.013,301516,2017-03-14 01:18:32:091,,,,,,,,,,,,,,,,,,,,,,,,,,,
2.129,-0.171,8.547,0.002,-0.004,-0.026,302017,2017-03-14 01:18:32:592,,,,,,,,,,,,,,,,,,,,,,,,,,,
2.115,-0.163,8.594,0.017,-0.004,-0.003,302516,2017-03-14 01:18:33:091,,,,,,,,,,,,,,,,,,,,,,,,,,,
2.09,-0.133,8.558,0.002,-0.002,0.001,303016,2017-03-14 01:18:33:591,,,,,,,,,,,,,,,,,,,,,,,,,,,
2.109,-0.158,8.578,-0.001,0.008,0.004,303517,2017-03-14 01:18:34:092,,,,,,,,,,,,,,,,,,,,,,,,,,,
2.12,-0.152,8.559,-0.002,-0.006,-0.008,304016,2017-03-14 01:18:34:591,,,,,,,,,,,,,,,,,,,,,,,,,,,
2.115,-0.148,8.567,0.015,0.001,0.01,304515,2017-03-14 01:18:35:090,,,,,,,,,,,,,,,,,,,,,,,,,,,
2.107,-0.17,8.581,0.001,0.013,-0.008,305016,2017-03-14 01:18:35:591,,,,,,,,,,,,,,,,,,,,,,,,,,,
2.096,-0.188,8.553,0.013,0.004,-0.005,305516,2017-03-14 01:18:36:091,,,,,,,,,,,,,,,,,,,,,,,,,,,
2.094,-0.181,8.578,0,0.015,-0.012,306016,2017-03-14 01:18:36:591,,,,,,,,,,,,,,,,,,,,,,,,,,,
2.109,-0.148,8.563,-0.021,0.013,-0.021,306516,2017-03-14 01:18:37:091,,,,,,,,,,,,,,,,,,,,,,,,,,,
2.108,-0.153,8.571,-0.018,-0.015,-0.025,307016,2017-03-14 01:18:37:591,,,,,,,,,,,,,,,,,,,,,,,,,,,
2.101,-0.186,8.573,-0.003,-0.007,-0.002,307516,2017-03-14 01:18:38:091,,,,,,,,,,,,,,,,,,,,,,,,,,,
2.102,-0.153,8.54,-0.002,-0.026,0.006,308016,2017-03-14 01:18:38:591,,,,,,,,,,,,,,,,,,,,,,,,,,,
2.12,-0.183,8.575,0.008,-0.006,0.007,308517,2017-03-14 01:18:39:092,,,,,,,,,,,,,,,,,,,,,,,,,,,
2.115,-0.181,8.602,0.015,-0.002,-0.004,309016,2017-03-14 01:18:39:591,,,,,,,,,,,,,,,,,,,,,,,,,,,
2.099,-0.173,8.591,-0.005,0,-0.003,309516,2017-03-14 01:18:40:091,,,,,,,,,,,,,,,,,,,,,,,,,,,
2.093,-0.195,8.576,-0.016,-0.017,-0.004,310016,2017-03-14 01:18:40:591,,,,,,,,,,,,,,,,,,,,,,,,,,,
2.121,-0.161,8.566,-0.012,0.003,-0.005,310516,2017-03-14 01:18:41:091,,,,,,,,,,,,,,,,,,,,,,,,,,,
2.137,-0.192,8.571,0.023,-0.017,0.005,311016,2017-03-14 01:18:41:591,,,,,,,,,,,,,,,,,,,,,,,,,,,
2.052,-0.146,8.578,-0.134,0.189,0.101,311516,2017-03-14 01:18:42:091,,,,,,,,,,,,,,,,,,,,,,,,,,,
2.176,-0.076,8.57,0.042,0.061,-0.077,312016,2017-03-14 01:18:42:591,,,,,,,,,,,,,,,,,,,,,,,,,,,
2.072,-0.116,8.595,-0.016,0.001,0.005,312516,2017-03-14 01:18:43:091,,,,,,,,,,,,,,,,,,,,,,,,,,,
2.087,-0.137,8.584,-0.022,-0.029,0.001,313016,2017-03-14 01:18:43:591,,,,,,,,,,,,,,,,,,,,,,,,,,,
2.065,-0.141,8.597,-0.029,-0.009,0.016,313517,2017-03-14 01:18:44:092,,,,,,,,,,,,,,,,,,,,,,,,,,,
2.12,-0.142,8.634,-0.018,-0.023,0.008,314016,2017-03-14 01:18:44:591,,,,,,,,,,,,,,,,,,,,,,,,,,,
2.094,-0.144,8.59,-0.087,0.097,-0.079,314516,2017-03-14 01:18:45:091,,,,,,,,,,,,,,,,,,,,,,,,,,,
2.163,-0.092,8.672,-0.062,0.004,0.049,315016,2017-03-14 01:18:45:591,,,,,,,,,,,,,,,,,,,,,,,,,,,
2.1,-0.189,8.509,0.012,0.045,0.017,315517,2017-03-14 01:18:46:092,,,,,,,,,,,,,,,,,,,,,,,,,,,
2.099,-0.162,8.582,0.016,0.005,0.016,316016,2017-03-14 01:18:46:591,,,,,,,,,,,,,,,,,,,,,,,,,,,
2.138,-0.166,8.594,0.014,0.002,0.015,316516,2017-03-14 01:18:47:091,,,,,,,,,,,,,,,,,,,,,,,,,,,
2.138,-0.188,8.583,-0.009,0.007,0.013,317016,2017-03-14 01:18:47:591,,,,,,,,,,,,,,,,,,,,,,,,,,,
2.068,-0.143,8.561,0.041,0.005,-0.016,317516,2017-03-14 01:18:48:091,,,,,,,,,,,,,,,,,,,,,,,,,,,
2.096,-0.144,8.576,-0.011,0.017,0.004,318017,2017-03-14 01:18:48:592,,,,,,,,,,,,,,,,,,,,,,,,,,,
2.121,-0.18,8.604,0.013,-0.021,0.031,318516,2017-03-14 01:18:49:091,,,,,,,,,,,,,,,,,,,,,,,,,,,
2.12,-0.143,8.591,-0.022,0.008,-0.068,319016,2017-03-14 01:18:49:591,,,,,,,,,,,,,,,,,,,,,,,,,,,
2.099,-0.17,8.602,-0.01,-0.006,0.011,319516,2017-03-14 01:18:50:091,,,,,,,,,,,,,,,,,,,,,,,,,,,
2.097,-0.144,8.584,0.013,0.006,-0.002,320016,2017-03-14 01:18:50:591,,,,,,,,,,,,,,,,,,,,,,,,,,,
2.103,-0.157,8.565,0.013,0.017,-0.013,320516,2017-03-14 01:18:51:091,,,,,,,,,,,,,,,,,,,,,,,,,,,
2.105,-0.134,8.566,0.009,0.019,-0.004,321016,2017-03-14 01:18:51:591,,,,,,,,,,,,,,,,,,,,,,,,,,,
2.093,-0.161,8.575,-0.004,-0.017,-0.008,321516,2017-03-14 01:18:52:091,,,,,,,,,,,,,,,,,,,,,,,,,,,
2.103,-0.158,8.584,0.01,-0.014,-0.006,322016,2017-03-14 01:18:52:591,,,,,,,,,,,,,,,,,,,,,,,,,,,
2.052,-0.115,8.595,-0.036,0.046,0.02,322516,2017-03-14 01:18:53:091,,,,,,,,,,,,,,,,,,,,,,,,,,,
2.205,-0.156,8.566,0.101,0.01,-0.006,323016,2017-03-14 01:18:53:591,,,,,,,,,,,,,,,,,,,,,,,,,,,
2.093,-0.22,8.571,0.048,0.054,-0.031,323517,2017-03-14 01:18:54:092,,,,,,,,,,,,,,,,,,,,,,,,,,,
2.117,-0.169,8.579,0.021,0.004,-0.015,324016,2017-03-14 01:18:54:591,,,,,,,,,,,,,,,,,,,,,,,,,,,
2.099,-0.161,8.571,-0.005,0.016,0.001,324517,2017-03-14 01:18:55:092,,,,,,,,,,,,,,,,,,,,,,,,,,,
2.085,-0.158,8.593,-0.015,0.021,0.022,325017,2017-03-14 01:18:55:592,,,,,,,,,,,,,,,,,,,,,,,,,,,
2.095,-0.168,8.549,0.02,0.032,0.003,325516,2017-03-14 01:18:56:091,,,,,,,,,,,,,,,,,,,,,,,,,,,
2.084,-0.168,8.566,0.011,0.023,-0.018,326015,2017-03-14 01:18:56:590,,,,,,,,,,,,,,,,,,,,,,,,,,,
2.113,-0.175,8.596,0.005,0,0.021,326516,2017-03-14 01:18:57:091,,,,,,,,,,,,,,,,,,,,,,,,,,,
2.121,-0.159,8.593,0,0.029,-0.008,327016,2017-03-14 01:18:57:591,,,,,,,,,,,,,,,,,,,,,,,,,,,
2.121,-0.183,8.565,0.02,0.01,-0.018,327516,2017-03-14 01:18:58:091,,,,,,,,,,,,,,,,,,,,,,,,,,,
2.099,-0.191,8.572,-0.009,-0.014,0,328017,2017-03-14 01:18:58:592,,,,,,,,,,,,,,,,,,,,,,,,,,,
2.114,-0.167,8.576,0.006,0.011,0.004,328517,2017-03-14 01:18:59:092,,,,,,,,,,,,,,,,,,,,,,,,,,,
2.112,-0.148,8.578,0.001,0.01,0.033,329016,2017-03-14 01:18:59:591,,,,,,,,,,,,,,,,,,,,,,,,,,,
2.123,-0.161,8.594,0.011,0.007,-0.005,329516,2017-03-14 01:19:00:091,,,,,,,,,,,,,,,,,,,,,,,,,,,
2.119,-0.169,8.61,0.005,0.011,0.017,330016,2017-03-14 01:19:00:591,,,,,,,,,,,,,,,,,,,,,,,,,,,
2.12,-0.185,8.552,0.003,0.014,-0.007,330517,2017-03-14 01:19:01:092,,,,,,,,,,,,,,,,,,,,,,,,,,,
2.117,-0.198,8.596,0.012,0,-0.04,331017,2017-03-14 01:19:01:592,,,,,,,,,,,,,,,,,,,,,,,,,,,
2.109,-0.17,8.593,0.017,0.012,-0.004,331517,2017-03-14 01:19:02:092,,,,,,,,,,,,,,,,,,,,,,,,,,,
2.125,-0.164,8.565,0.019,-0.007,0.01,332016,2017-03-14 01:19:02:591,,,,,,,,,,,,,,,,,,,,,,,,,,,
2.126,-0.174,8.546,-0.007,-0.013,-0.028,332516,2017-03-14 01:19:03:091,,,,,,,,,,,,,,,,,,,,,,,,,,,
2.117,-0.158,8.606,0.002,0.034,0.006,333016,2017-03-14 01:19:03:591,,,,,,,,,,,,,,,,,,,,,,,,,,,
2.089,-0.156,8.56,0.014,0.01,0.019,333516,2017-03-14 01:19:04:091,,,,,,,,,,,,,,,,,,,,,,,,,,,
2.178,-0.244,8.567,0.051,0.041,-0.057,334016,2017-03-14 01:19:04:591,,,,,,,,,,,,,,,,,,,,,,,,,,,
2.107,-0.131,8.558,-0.011,0.027,-0.015,334517,2017-03-14 01:19:05:092,,,,,,,,,,,,,,,,,,,,,,,,,,,
2.137,-0.151,8.591,-0.008,0.038,-0.005,335016,2017-03-14 01:19:05:591,,,,,,,,,,,,,,,,,,,,,,,,,,,
2.133,-0.173,8.579,-0.026,-0.011,0.025,335516,2017-03-14 01:19:06:091,,,,,,,,,,,,,,,,,,,,,,,,,,,
2.117,-0.199,8.587,-0.015,-0.056,-0.022,336016,2017-03-14 01:19:06:591,,,,,,,,,,,,,,,,,,,,,,,,,,,
2.112,-0.193,8.558,-0.014,-0.015,0.005,336516,2017-03-14 01:19:07:091,,,,,,,,,,,,,,,,,,,,,,,,,,,
2.132,-0.156,8.589,-0.017,-0.023,0.001,337017,2017-03-14 01:19:07:592,,,,,,,,,,,,,,,,,,,,,,,,,,,
2.112,-0.161,8.575,0.001,0.006,0.003,337517,2017-03-14 01:19:08:092,,,,,,,,,,,,,,,,,,,,,,,,,,,
2.107,-0.168,8.59,-0.006,-0.002,0.015,338016,2017-03-14 01:19:08:591,,,,,,,,,,,,,,,,,,,,,,,,,,,
2.106,-0.187,8.595,-0.002,-0.03,0.009,338517,2017-03-14 01:19:09:092,,,,,,,,,,,,,,,,,,,,,,,,,,,
2.102,-0.186,8.583,0.011,-0.018,-0.032,339017,2017-03-14 01:19:09:592,,,,,,,,,,,,,,,,,,,,,,,,,,,
2.1,-0.15,8.597,-0.022,0.009,-0.027,339516,2017-03-14 01:19:10:091,,,,,,,,,,,,,,,,,,,,,,,,,,,
2.095,-0.18,8.557,-0.012,-0.012,-0.019,340016,2017-03-14 01:19:10:591,,,,,,,,,,,,,,,,,,,,,,,,,,,
2.1,-0.174,8.59,0.008,-0.003,-0.008,340516,2017-03-14 01:19:11:091,,,,,,,,,,,,,,,,,,,,,,,,,,,
2.123,-0.165,8.571,0.012,0,-0.01,341017,2017-03-14 01:19:11:592,,,,,,,,,,,,,,,,,,,,,,,,,,,
2.118,-0.174,8.542,0.007,0.005,-0.021,341517,2017-03-14 01:19:12:092,,,,,,,,,,,,,,,,,,,,,,,,,,,
2.097,-0.162,8.577,-0.012,0.015,0.012,342016,2017-03-14 01:19:12:591,,,,,,,,,,,,,,,,,,,,,,,,,,,
2.119,-0.151,8.598,-0.013,0.014,0.003,342516,2017-03-14 01:19:13:091,,,,,,,,,,,,,,,,,,,,,,,,,,,
2.113,-0.163,8.597,-0.019,0.023,-0.028,343017,2017-03-14 01:19:13:592,,,,,,,,,,,,,,,,,,,,,,,,,,,
2.109,-0.186,8.563,0,-0.01,0,343516,2017-03-14 01:19:14:091,,,,,,,,,,,,,,,,,,,,,,,,,,,
2.101,-0.148,8.566,-0.006,0.027,0.001,344016,2017-03-14 01:19:14:591,,,,,,,,,,,,,,,,,,,,,,,,,,,
2.123,-0.142,8.576,-0.005,0.005,0.017,344517,2017-03-14 01:19:15:092,,,,,,,,,,,,,,,,,,,,,,,,,,,
2.119,-0.139,8.577,0.005,0.007,-0.009,345016,2017-03-14 01:19:15:591,,,,,,,,,,,,,,,,,,,,,,,,,,,
2.096,-0.182,8.559,-0.009,-0.008,-0.005,345517,2017-03-14 01:19:16:092,,,,,,,,,,,,,,,,,,,,,,,,,,,
2.091,-0.163,8.565,-0.018,-0.003,-0.01,346016,2017-03-14 01:19:16:591,,,,,,,,,,,,,,,,,,,,,,,,,,,
2.103,-0.173,8.582,-0.001,-0.013,0.022,346516,2017-03-14 01:19:17:091,,,,,,,,,,,,,,,,,,,,,,,,,,,
2.101,-0.169,8.582,-0.005,0,0.004,347016,2017-03-14 01:19:17:591,,,,,,,,,,,,,,,,,,,,,,,,,,,
2.131,-0.144,8.595,-0.016,0.006,-0.026,347516,2017-03-14 01:19:18:091,,,,,,,,,,,,,,,,,,,,,,,,,,,
2.118,-0.18,8.565,0.002,-0.002,0.024,348017,2017-03-14 01:19:18:592,,,,,,,,,,,,,,,,,,,,,,,,,,,
2.105,-0.157,8.579,-0.011,0.007,0.017,348516,2017-03-14 01:19:19:091,,,,,,,,,,,,,,,,,,,,,,,,,,,
2.117,-0.17,8.558,-0.013,0.001,-0.014,349016,2017-03-14 01:19:19:591,,,,,,,,,,,,,,,,,,,,,,,,,,,
2.109,-0.146,8.583,0.005,-0.006,-0.013,349516,2017-03-14 01:19:20:091,,,,,,,,,,,,,,,,,,,,,,,,,,,
2.097,-0.189,8.576,-0.019,-0.013,-0.008,350016,2017-03-14 01:19:20:591,,,,,,,,,,,,,,,,,,,,,,,,,,,
2.108,-0.143,8.577,-0.011,0.019,0.003,350516,2017-03-14 01:19:21:091,,,,,,,,,,,,,,,,,,,,,,,,,,,
2.114,-0.164,8.564,-0.014,0.005,0.016,351016,2017-03-14 01:19:21:591,,,,,,,,,,,,,,,,,,,,,,,,,,,
2.099,-0.187,8.581,-0.015,-0.015,0.01,351517,2017-03-14 01:19:22:092,,,,,,,,,,,,,,,,,,,,,,,,,,,
2.132,-0.159,8.572,-0.001,0.009,0.001,352016,2017-03-14 01:19:22:591,,,,,,,,,,,,,,,,,,,,,,,,,,,
2.107,-0.159,8.572,-0.021,-0.009,0.006,352517,2017-03-14 01:19:23:092,,,,,,,,,,,,,,,,,,,,,,,,,,,
2.131,-0.162,8.546,0.003,-0.001,0.003,353016,2017-03-14 01:19:23:591,,,,,,,,,,,,,,,,,,,,,,,,,,,
2.118,-0.161,8.553,0.008,0.005,-0.013,353516,2017-03-14 01:19:24:091,,,,,,,,,,,,,,,,,,,,,,,,,,,
2.118,-0.186,8.57,-0.001,-0.014,0.006,354017,2017-03-14 01:19:24:592,,,,,,,,,,,,,,,,,,,,,,,,,,,
2.096,-0.185,8.57,0.008,-0.023,0.009,354517,2017-03-14 01:19:25:092,,,,,,,,,,,,,,,,,,,,,,,,,,,
2.117,-0.164,8.567,-0.022,0.028,-0.03,355016,2017-03-14 01:19:25:591,,,,,,,,,,,,,,,,,,,,,,,,,,,
2.085,-0.145,8.573,-0.018,0.029,0.003,355516,2017-03-14 01:19:26:091,,,,,,,,,,,,,,,,,,,,,,,,,,,
2.113,-0.155,8.57,0.011,0.012,0.014,356017,2017-03-14 01:19:26:592,,,,,,,,,,,,,,,,,,,,,,,,,,,
2.111,-0.167,8.564,0.005,0.011,-0.019,356516,2017-03-14 01:19:27:091,,,,,,,,,,,,,,,,,,,,,,,,,,,
2.094,-0.171,8.564,-0.01,-0.001,-0.008,357016,2017-03-14 01:19:27:591,,,,,,,,,,,,,,,,,,,,,,,,,,,
2.106,-0.153,8.567,-0.017,0.02,0.006,357516,2017-03-14 01:19:28:091,,,,,,,,,,,,,,,,,,,,,,,,,,,
2.12,-0.183,8.546,0.01,-0.017,-0.023,358017,2017-03-14 01:19:28:592,,,,,,,,,,,,,,,,,,,,,,,,,,,
2.1,-0.146,8.543,0.022,-0.002,-0.031,358517,2017-03-14 01:19:29:092,,,,,,,,,,,,,,,,,,,,,,,,,,,
2.1,-0.164,8.581,-0.002,0.008,0.012,359016,2017-03-14 01:19:29:591,,,,,,,,,,,,,,,,,,,,,,,,,,,
2.103,-0.185,8.576,-0.007,-0.008,0.008,359516,2017-03-14 01:19:30:091,,,,,,,,,,,,,,,,,,,,,,,,,,,
2.123,-0.17,8.576,0.015,0.004,0.004,360016,2017-03-14 01:19:30:591,,,,,,,,,,,,,,,,,,,,,,,,,,,
2.1,-0.171,8.587,0.005,0.005,-0.001,360516,2017-03-14 01:19:31:091,,,,,,,,,,,,,,,,,,,,,,,,,,,
2.126,-0.179,8.576,0.012,-0.016,0.008,361017,2017-03-14 01:19:31:592,,,,,,,,,,,,,,,,,,,,,,,,,,,
2.096,-0.171,8.569,-0.009,-0.002,-0.006,361517,2017-03-14 01:19:32:092,,,,,,,,,,,,,,,,,,,,,,,,,,,
2.113,-0.167,8.583,0.004,0.009,0.006,362016,2017-03-14 01:19:32:591,,,,,,,,,,,,,,,,,,,,,,,,,,,
2.102,-0.163,8.569,-0.002,0.013,0.007,362516,2017-03-14 01:19:33:091,,,,,,,,,,,,,,,,,,,,,,,,,,,
2.127,-0.159,8.536,-0.015,0.01,-0.004,363016,2017-03-14 01:19:33:591,,,,,,,,,,,,,,,,,,,,,,,,,,,
2.107,-0.161,8.569,-0.001,0.007,-0.007,363516,2017-03-14 01:19:34:091,,,,,,,,,,,,,,,,,,,,,,,,,,,
2.115,-0.179,8.587,0.005,-0.009,0.012,364016,2017-03-14 01:19:34:591,,,,,,,,,,,,,,,,,,,,,,,,,,,
2.105,-0.163,8.591,-0.026,0.003,0.002,364516,2017-03-14 01:19:35:091,,,,,,,,,,,,,,,,,,,,,,,,,,,
2.125,-0.155,8.546,0.014,0.015,-0.02,365017,2017-03-14 01:19:35:592,,,,,,,,,,,,,,,,,,,,,,,,,,,
2.108,-0.164,8.569,0.001,0.013,0.003,365517,2017-03-14 01:19:36:092,,,,,,,,,,,,,,,,,,,,,,,,,,,
2.125,-0.159,8.535,0.004,-0.003,-0.037,366016,2017-03-14 01:19:36:591,,,,,,,,,,,,,,,,,,,,,,,,,,,
2.109,-0.133,8.571,-0.015,0.017,0.027,366516,2017-03-14 01:19:37:091,,,,,,,,,,,,,,,,,,,,,,,,,,,
2.108,-0.188,8.563,0.019,-0.009,0.006,367017,2017-03-14 01:19:37:592,,,,,,,,,,,,,,,,,,,,,,,,,,,
2.12,-0.179,8.575,0.007,0.005,-0.02,367517,2017-03-14 01:19:38:092,,,,,,,,,,,,,,,,,,,,,,,,,,,
2.117,-0.163,8.572,-0.007,0.003,-0.016,368016,2017-03-14 01:19:38:591,,,,,,,,,,,,,,,,,,,,,,,,,,,
2.114,-0.171,8.577,-0.021,0.002,-0.015,368516,2017-03-14 01:19:39:091,,,,,,,,,,,,,,,,,,,,,,,,,,,
2.095,-0.173,8.554,-0.027,0.019,0.001,369016,2017-03-14 01:19:39:591,,,,,,,,,,,,,,,,,,,,,,,,,,,
2.123,-0.152,8.581,0.011,0.015,0.01,369516,2017-03-14 01:19:40:091,,,,,,,,,,,,,,,,,,,,,,,,,,,
2.126,-0.175,8.588,0,-0.005,-0.021,370016,2017-03-14 01:19:40:591,,,,,,,,,,,,,,,,,,,,,,,,,,,
2.095,-0.152,8.576,-0.001,-0.021,0.001,370517,2017-03-14 01:19:41:092,,,,,,,,,,,,,,,,,,,,,,,,,,,
2.096,-0.188,8.588,-0.015,0.001,0.002,371017,2017-03-14 01:19:41:592,,,,,,,,,,,,,,,,,,,,,,,,,,,
2.101,-0.161,8.561,0,0.011,-0.002,371517,2017-03-14 01:19:42:092,,,,,,,,,,,,,,,,,,,,,,,,,,,
2.13,-0.198,8.589,0.007,0.013,0.006,372017,2017-03-14 01:19:42:592,,,,,,,,,,,,,,,,,,,,,,,,,,,
2.09,-0.157,8.545,-0.01,-0.03,0.007,372516,2017-03-14 01:19:43:091,,,,,,,,,,,,,,,,,,,,,,,,,,,
2.117,-0.157,8.563,0.009,-0.015,-0.002,373016,2017-03-14 01:19:43:591,,,,,,,,,,,,,,,,,,,,,,,,,,,
2.097,-0.161,8.549,-0.005,0.01,-0.014,373516,2017-03-14 01:19:44:091,,,,,,,,,,,,,,,,,,,,,,,,,,,
2.102,-0.14,8.571,-0.006,0.02,-0.01,374016,2017-03-14 01:19:44:591,,,,,,,,,,,,,,,,,,,,,,,,,,,
2.112,-0.177,8.571,-0.01,0.015,0.002,374516,2017-03-14 01:19:45:091,,,,,,,,,,,,,,,,,,,,,,,,,,,
2.094,-0.168,8.602,0.009,-0.009,-0.014,375017,2017-03-14 01:19:45:592,,,,,,,,,,,,,,,,,,,,,,,,,,,
2.115,-0.173,8.559,0.006,0.007,-0.015,375517,2017-03-14 01:19:46:092,,,,,,,,,,,,,,,,,,,,,,,,,,,
2.106,-0.174,8.579,0.001,-0.013,0.016,376017,2017-03-14 01:19:46:592,,,,,,,,,,,,,,,,,,,,,,,,,,,
2.088,-0.162,8.573,-0.015,-0.021,0.008,376517,2017-03-14 01:19:47:092,,,,,,,,,,,,,,,,,,,,,,,,,,,
2.135,-0.157,8.548,0.01,-0.005,0.003,377017,2017-03-14 01:19:47:592,,,,,,,,,,,,,,,,,,,,,,,,,,,
2.13,-0.162,8.589,-0.014,0.008,0.031,377516,2017-03-14 01:19:48:091,,,,,,,,,,,,,,,,,,,,,,,,,,,
2.125,-0.146,8.566,0.001,0.008,-0.005,378016,2017-03-14 01:19:48:591,,,,,,,,,,,,,,,,,,,,,,,,,,,
2.146,-0.153,8.573,-0.014,0.002,0.018,378516,2017-03-14 01:19:49:091,,,,,,,,,,,,,,,,,,,,,,,,,,,
2.108,-0.176,8.565,-0.011,0.034,0.006,379016,2017-03-14 01:19:49:591,,,,,,,,,,,,,,,,,,,,,,,,,,,
2.118,-0.164,8.564,-0.022,0.002,0.004,379516,2017-03-14 01:19:50:091,,,,,,,,,,,,,,,,,,,,,,,,,,,
2.124,-0.179,8.602,0.018,-0.001,0.008,380016,2017-03-14 01:19:50:591,,,,,,,,,,,,,,,,,,,,,,,,,,,
2.112,-0.186,8.564,-0.014,-0.002,0.004,380516,2017-03-14 01:19:51:091,,,,,,,,,,,,,,,,,,,,,,,,,,,
2.111,-0.191,8.573,0.003,-0.005,0.025,381017,2017-03-14 01:19:51:592,,,,,,,,,,,,,,,,,,,,,,,,,,,
2.109,-0.171,8.598,0.003,0.009,-0.013,381517,2017-03-14 01:19:52:092,,,,,,,,,,,,,,,,,,,,,,,,,,,
2.102,-0.155,8.566,0.021,0,0.007,382016,2017-03-14 01:19:52:591,,,,,,,,,,,,,,,,,,,,,,,,,,,
2.106,-0.165,8.566,-0.019,-0.007,-0.004,382516,2017-03-14 01:19:53:091,,,,,,,,,,,,,,,,,,,,,,,,,,,
2.085,-0.18,8.588,0.002,-0.005,0.002,383016,2017-03-14 01:19:53:591,,,,,,,,,,,,,,,,,,,,,,,,,,,
2.12,-0.162,8.576,0.004,0.013,-0.002,383516,2017-03-14 01:19:54:091,,,,,,,,,,,,,,,,,,,,,,,,,,,
2.096,-0.15,8.572,0.007,0.013,-0.009,384019,2017-03-14 01:19:54:594,,,,,,,,,,,,,,,,,,,,,,,,,,,
2.113,-0.14,8.583,-0.021,-0.027,0,384516,2017-03-14 01:19:55:091,,,,,,,,,,,,,,,,,,,,,,,,,,,
2.091,-0.138,8.589,-0.012,0.031,0.02,385016,2017-03-14 01:19:55:591,,,,,,,,,,,,,,,,,,,,,,,,,,,
2.115,-0.173,8.551,-0.021,0.015,0.006,385517,2017-03-14 01:19:56:092,,,,,,,,,,,,,,,,,,,,,,,,,,,
2.119,-0.175,8.554,-0.022,-0.008,0.031,386018,2017-03-14 01:19:56:593,,,,,,,,,,,,,,,,,,,,,,,,,,,
2.115,-0.197,8.546,-0.002,0.005,-0.014,386516,2017-03-14 01:19:57:091,,,,,,,,,,,,,,,,,,,,,,,,,,,
2.119,-0.164,8.589,0.01,0.015,0.022,387017,2017-03-14 01:19:57:592,,,,,,,,,,,,,,,,,,,,,,,,,,,
2.131,-0.182,8.56,0.004,0.003,0.021,387516,2017-03-14 01:19:58:091,,,,,,,,,,,,,,,,,,,,,,,,,,,
2.108,-0.17,8.585,0,0.022,0.031,388017,2017-03-14 01:19:58:592,,,,,,,,,,,,,,,,,,,,,,,,,,,
2.109,-0.164,8.554,-0.002,0.004,-0.01,388516,2017-03-14 01:19:59:091,,,,,,,,,,,,,,,,,,,,,,,,,,,
2.123,-0.14,8.537,0.012,0.026,-0.025,389016,2017-03-14 01:19:59:591,,,,,,,,,,,,,,,,,,,,,,,,,,,
2.1,-0.197,8.613,-0.002,-0.024,-0.005,389517,2017-03-14 01:20:00:092,,,,,,,,,,,,,,,,,,,,,,,,,,,
2.126,-0.159,8.603,0.014,-0.024,0.006,390016,2017-03-14 01:20:00:591,,,,,,,,,,,,,,,,,,,,,,,,,,,
2.109,-0.155,8.584,-0.004,0.016,0.001,390516,2017-03-14 01:20:01:091,,,,,,,,,,,,,,,,,,,,,,,,,,,
2.109,-0.152,8.587,0.001,0.018,0.003,391017,2017-03-14 01:20:01:592,,,,,,,,,,,,,,,,,,,,,,,,,,,
2.126,-0.188,8.606,0.007,-0.011,-0.01,391516,2017-03-14 01:20:02:091,,,,,,,,,,,,,,,,,,,,,,,,,,,
2.096,-0.137,8.554,0.01,0.009,0.007,392016,2017-03-14 01:20:02:591,,,,,,,,,,,,,,,,,,,,,,,,,,,
2.119,-0.185,8.573,0.007,-0.015,0.001,392517,2017-03-14 01:20:03:092,,,,,,,,,,,,,,,,,,,,,,,,,,,
2.112,-0.163,8.559,-0.014,-0.005,0.01,393016,2017-03-14 01:20:03:591,,,,,,,,,,,,,,,,,,,,,,,,,,,
2.113,-0.177,8.56,-0.008,0.006,-0.007,393516,2017-03-14 01:20:04:091,,,,,,,,,,,,,,,,,,,,,,,,,,,
2.102,-0.179,8.569,-0.011,0.001,-0.028,394017,2017-03-14 01:20:04:592,,,,,,,,,,,,,,,,,,,,,,,,,,,
2.082,-0.188,8.569,-0.007,-0.004,-0.008,394516,2017-03-14 01:20:05:091,,,,,,,,,,,,,,,,,,,,,,,,,,,
2.1,-0.155,8.572,0.018,0.002,0.008,395016,2017-03-14 01:20:05:591,,,,,,,,,,,,,,,,,,,,,,,,,,,
2.108,-0.175,8.587,0.006,0.023,-0.003,395516,2017-03-14 01:20:06:091,,,,,,,,,,,,,,,,,,,,,,,,,,,
2.089,-0.153,8.572,0.008,0.001,-0.019,396016,2017-03-14 01:20:06:591,,,,,,,,,,,,,,,,,,,,,,,,,,,
2.118,-0.177,8.583,0.016,0.003,-0.005,396516,2017-03-14 01:20:07:091,,,,,,,,,,,,,,,,,,,,,,,,,,,
2.113,-0.161,8.581,0.004,-0.004,0.001,397017,2017-03-14 01:20:07:592,,,,,,,,,,,,,,,,,,,,,,,,,,,
2.117,-0.186,8.604,0.008,0.016,-0.001,397516,2017-03-14 01:20:08:091,,,,,,,,,,,,,,,,,,,,,,,,,,,
2.119,-0.179,8.573,0.007,0.027,-0.004,398017,2017-03-14 01:20:08:592,,,,,,,,,,,,,,,,,,,,,,,,,,,
2.105,-0.173,8.557,-0.002,0.011,0.01,398517,2017-03-14 01:20:09:092,,,,,,,,,,,,,,,,,,,,,,,,,,,
2.106,-0.156,8.578,0.019,-0.014,0.011,399016,2017-03-14 01:20:09:591,,,,,,,,,,,,,,,,,,,,,,,,,,,
2.101,-0.173,8.566,0,0.003,0.011,399516,2017-03-14 01:20:10:091,,,,,,,,,,,,,,,,,,,,,,,,,,,
2.124,-0.173,8.554,0.005,0.016,0.002,400016,2017-03-14 01:20:10:591,,,,,,,,,,,,,,,,,,,,,,,,,,,
2.089,-0.156,8.565,0.023,-0.013,-0.008,400516,2017-03-14 01:20:11:091,,,,,,,,,,,,,,,,,,,,,,,,,,,
2.109,-0.152,8.563,-0.02,-0.008,-0.002,401017,2017-03-14 01:20:11:592,,,,,,,,,,,,,,,,,,,,,,,,,,,
2.109,-0.175,8.569,0.003,0.014,-0.003,401516,2017-03-14 01:20:12:091,,,,,,,,,,,,,,,,,,,,,,,,,,,
2.139,-0.195,8.558,-0.001,0.032,-0.02,402016,2017-03-14 01:20:12:591,,,,,,,,,,,,,,,,,,,,,,,,,,,
2.108,-0.188,8.545,-0.006,-0.003,0.007,402516,2017-03-14 01:20:13:091,,,,,,,,,,,,,,,,,,,,,,,,,,,
2.106,-0.17,8.555,0.001,-0.002,-0.01,403017,2017-03-14 01:20:13:592,,,,,,,,,,,,,,,,,,,,,,,,,,,
2.108,-0.159,8.606,-0.02,-0.003,0.006,403515,2017-03-14 01:20:14:090,,,,,,,,,,,,,,,,,,,,,,,,,,,
2.109,-0.183,8.567,0,0.026,0.013,404016,2017-03-14 01:20:14:591,,,,,,,,,,,,,,,,,,,,,,,,,,,
2.127,-0.173,8.563,-0.01,-0.002,0.031,404516,2017-03-14 01:20:15:091,,,,,,,,,,,,,,,,,,,,,,,,,,,
2.121,-0.157,8.559,0.006,0.013,-0.01,405016,2017-03-14 01:20:15:591,,,,,,,,,,,,,,,,,,,,,,,,,,,
2.126,-0.161,8.557,0.007,0.014,-0.004,405516,2017-03-14 01:20:16:091,,,,,,,,,,,,,,,,,,,,,,,,,,,
2.077,-0.156,8.621,-0.114,0.009,-0.004,406017,2017-03-14 01:20:16:592,,,,,,,,,,,,,,,,,,,,,,,,,,,
2.163,-0.244,8.579,0.198,0.244,0.097,406516,2017-03-14 01:20:17:091,,,,,,,,,,,,,,,,,,,,,,,,,,,
2.211,-0.114,8.777,0.131,0.059,0.2,407016,2017-03-14 01:20:17:591,,,,,,,,,,,,,,,,,,,,,,,,,,,
2.066,-0.202,8.615,-0.114,0.127,0.127,407516,2017-03-14 01:20:18:091,,,,,,,,,,,,,,,,,,,,,,,,,,,
2.101,-0.153,8.674,-0.029,0.06,-0.021,408016,2017-03-14 01:20:18:591,,,,,,,,,,,,,,,,,,,,,,,,,,,
1.746,-0.143,8.598,-0.347,-0.038,0.016,408517,2017-03-14 01:20:19:092,,,,,,,,,,,,,,,,,,,,,,,,,,,
2.019,0.136,8.572,-0.039,0.212,-0.019,409016,2017-03-14 01:20:19:591,,,,,,,,,,,,,,,,,,,,,,,,,,,
2.12,-0.046,8.581,-0.046,0.02,0.031,409516,2017-03-14 01:20:20:091,,,,,,,,,,,,,,,,,,,,,,,,,,,
2.214,-0.144,8.533,-0.228,-0.271,-0.036,410017,2017-03-14 01:20:20:592,,,,,,,,,,,,,,,,,,,,,,,,,,,
2.102,-0.268,8.611,0.104,-0.033,-0.031,410516,2017-03-14 01:20:21:091,,,,,,,,,,,,,,,,,,,,,,,,,,,
2.1,-0.206,8.573,-0.013,-0.048,0.035,411017,2017-03-14 01:20:21:592,,,,,,,,,,,,,,,,,,,,,,,,,,,
2.101,-0.165,8.561,-0.011,0.001,0.011,411517,2017-03-14 01:20:22:092,,,,,,,,,,,,,,,,,,,,,,,,,,,
2.097,-0.108,8.53,0.017,-0.023,-0.043,412016,2017-03-14 01:20:22:591,,,,,,,,,,,,,,,,,,,,,,,,,,,
2.103,-0.136,8.593,0.016,0.012,0.013,412516,2017-03-14 01:20:23:091,,,,,,,,,,,,,,,,,,,,,,,,,,,
2.126,-0.15,8.578,0.011,0.01,0.001,413017,2017-03-14 01:20:23:592,,,,,,,,,,,,,,,,,,,,,,,,,,,
2.102,-0.176,8.558,-0.009,-0.013,-0.021,413516,2017-03-14 01:20:24:091,,,,,,,,,,,,,,,,,,,,,,,,,,,
2.103,-0.185,8.551,0.002,-0.034,0.028,414016,2017-03-14 01:20:24:591,,,,,,,,,,,,,,,,,,,,,,,,,,,
2.139,-0.149,8.567,0.002,-0.002,-0.003,414516,2017-03-14 01:20:25:091,,,,,,,,,,,,,,,,,,,,,,,,,,,
2.103,-0.187,8.578,-0.013,-0.019,0.005,415016,2017-03-14 01:20:25:591,,,,,,,,,,,,,,,,,,,,,,,,,,,
2.108,-0.159,8.545,-0.005,0.005,-0.021,415516,2017-03-14 01:20:26:091,,,,,,,,,,,,,,,,,,,,,,,,,,,
2.109,-0.157,8.572,-0.014,-0.013,0.014,416016,2017-03-14 01:20:26:591,,,,,,,,,,,,,,,,,,,,,,,,,,,
2.112,-0.177,8.564,0.001,-0.012,0.007,416516,2017-03-14 01:20:27:091,,,,,,,,,,,,,,,,,,,,,,,,,,,
2.108,-0.165,8.554,-0.003,0.001,-0.01,417016,2017-03-14 01:20:27:591,,,,,,,,,,,,,,,,,,,,,,,,,,,
2.131,-0.159,8.572,-0.048,0.022,0.035,417516,2017-03-14 01:20:28:091,,,,,,,,,,,,,,,,,,,,,,,,,,,
2.117,-0.148,8.593,0.007,-0.004,0.011,418016,2017-03-14 01:20:28:591,,,,,,,,,,,,,,,,,,,,,,,,,,,
2.103,-0.158,8.613,-0.003,0.011,0.038,418516,2017-03-14 01:20:29:091,,,,,,,,,,,,,,,,,,,,,,,,,,,
2.111,-0.161,8.566,-0.001,0.004,-0.001,419017,2017-03-14 01:20:29:592,,,,,,,,,,,,,,,,,,,,,,,,,,,
2.108,-0.145,8.554,-0.001,0.001,0.011,419516,2017-03-14 01:20:30:091,,,,,,,,,,,,,,,,,,,,,,,,,,,
2.095,-0.159,8.59,0.017,0.005,-0.008,420016,2017-03-14 01:20:30:591,,,,,,,,,,,,,,,,,,,,,,,,,,,
2.117,-0.158,8.576,-0.001,0.005,-0.005,420516,2017-03-14 01:20:31:091,,,,,,,,,,,,,,,,,,,,,,,,,,,
2.109,-0.167,8.563,0.01,0.002,0.009,421016,2017-03-14 01:20:31:591,,,,,,,,,,,,,,,,,,,,,,,,,,,
2.121,-0.149,8.559,-0.022,-0.001,0.02,421517,2017-03-14 01:20:32:092,,,,,,,,,,,,,,,,,,,,,,,,,,,
2.106,-0.174,8.603,-0.014,0.008,0.01,422017,2017-03-14 01:20:32:592,,,,,,,,,,,,,,,,,,,,,,,,,,,
2.115,-0.173,8.573,-0.007,-0.027,-0.039,422516,2017-03-14 01:20:33:091,,,,,,,,,,,,,,,,,,,,,,,,,,,
2.1,-0.153,8.593,-0.011,-0.018,0.015,423017,2017-03-14 01:20:33:592,,,,,,,,,,,,,,,,,,,,,,,,,,,
2.093,-0.161,8.584,0.014,0.016,-0.011,423516,2017-03-14 01:20:34:091,,,,,,,,,,,,,,,,,,,,,,,,,,,
2.117,-0.167,8.555,0.007,0.005,-0.025,424016,2017-03-14 01:20:34:591,,,,,,,,,,,,,,,,,,,,,,,,,,,
2.118,-0.163,8.581,0.006,-0.015,0.008,424516,2017-03-14 01:20:35:091,,,,,,,,,,,,,,,,,,,,,,,,,,,
2.103,-0.152,8.589,-0.017,0.026,0.005,425016,2017-03-14 01:20:35:591,,,,,,,,,,,,,,,,,,,,,,,,,,,
2.076,-0.176,8.572,0.009,0.013,0.018,425516,2017-03-14 01:20:36:091,,,,,,,,,,,,,,,,,,,,,,,,,,,
2.046,-0.218,8.578,-0.044,-0.03,0.015,426016,2017-03-14 01:20:36:591,,,,,,,,,,,,,,,,,,,,,,,,,,,
2.041,-0.149,8.607,-0.03,0.13,0.182,426516,2017-03-14 01:20:37:091,,,,,,,,,,,,,,,,,,,,,,,,,,,
2.068,-0.122,8.569,-0.034,0.015,-0.009,427017,2017-03-14 01:20:37:592,,,,,,,,,,,,,,,,,,,,,,,,,,,
2.113,-0.146,8.559,-0.012,0.003,0.025,427516,2017-03-14 01:20:38:091,,,,,,,,,,,,,,,,,,,,,,,,,,,
2.059,-0.179,8.479,-0.025,0.034,0.013,428016,2017-03-14 01:20:38:591,,,,,,,,,,,,,,,,,,,,,,,,,,,
2.091,-0.161,8.561,-0.035,-0.017,-0.003,428516,2017-03-14 01:20:39:091,,,,,,,,,,,,,,,,,,,,,,,,,,,
2.1,-0.167,8.541,0.002,-0.009,0.007,429016,2017-03-14 01:20:39:591,,,,,,,,,,,,,,,,,,,,,,,,,,,
2.108,-0.143,8.579,-0.014,0.034,-0.02,429516,2017-03-14 01:20:40:091,,,,,,,,,,,,,,,,,,,,,,,,,,,
2.107,-0.165,8.553,0.004,-0.004,0.01,430016,2017-03-14 01:20:40:591,,,,,,,,,,,,,,,,,,,,,,,,,,,
2.13,-0.167,8.555,0.009,0.004,-0.015,430516,2017-03-14 01:20:41:091,,,,,,,,,,,,,,,,,,,,,,,,,,,
2.108,-0.156,8.566,-0.023,-0.007,0.019,431016,2017-03-14 01:20:41:591,,,,,,,,,,,,,,,,,,,,,,,,,,,
2.112,-0.163,8.559,0.004,-0.009,0,431518,2017-03-14 01:20:42:093,,,,,,,,,,,,,,,,,,,,,,,,,,,
2.099,-0.167,8.572,-0.013,0.005,0.004,432016,2017-03-14 01:20:42:591,,,,,,,,,,,,,,,,,,,,,,,,,,,
2.107,-0.175,8.59,0.001,-0.009,0.011,432516,2017-03-14 01:20:43:091,,,,,,,,,,,,,,,,,,,,,,,,,,,
2.133,-0.153,8.567,-0.007,0.021,0.026,433016,2017-03-14 01:20:43:591,,,,,,,,,,,,,,,,,,,,,,,,,,,
2.127,-0.159,8.588,0.017,-0.001,-0.03,433516,2017-03-14 01:20:44:091,,,,,,,,,,,,,,,,,,,,,,,,,,,
2.13,-0.146,8.567,0.017,0.017,0,434016,2017-03-14 01:20:44:591,,,,,,,,,,,,,,,,,,,,,,,,,,,
2.126,-0.17,8.553,0.015,-0.001,-0.017,434516,2017-03-14 01:20:45:091,,,,,,,,,,,,,,,,,,,,,,,,,,,
2.102,-0.165,8.566,0.002,0.006,0,435017,2017-03-14 01:20:45:592,,,,,,,,,,,,,,,,,,,,,,,,,,,
2.121,-0.176,8.535,0.009,-0.011,-0.026,435516,2017-03-14 01:20:46:091,,,,,,,,,,,,,,,,,,,,,,,,,,,
1.986,-0.276,8.523,-0.098,-0.101,-0.043,436017,2017-03-14 01:20:46:592,,,,,,,,,,,,,,,,,,,,,,,,,,,
2.137,-0.12,8.551,-0.065,-0.046,0.073,436516,2017-03-14 01:20:47:091,,,,,,,,,,,,,,,,,,,,,,,,,,,
2.144,-0.135,8.544,-0.036,0.006,0,437016,2017-03-14 01:20:47:591,,,,,,,,,,,,,,,,,,,,,,,,,,,
2.087,-0.119,8.583,-0.007,0.016,-0.011,437516,2017-03-14 01:20:48:091,,,,,,,,,,,,,,,,,,,,,,,,,,,
2.097,-0.164,8.539,-0.017,0.023,-0.009,438016,2017-03-14 01:20:48:591,,,,,,,,,,,,,,,,,,,,,,,,,,,
2.158,-0.167,8.56,0.073,-0.066,0.038,438517,2017-03-14 01:20:49:092,,,,,,,,,,,,,,,,,,,,,,,,,,,
2.119,-0.104,8.609,0.014,-0.078,0.003,439016,2017-03-14 01:20:49:591,,,,,,,,,,,,,,,,,,,,,,,,,,,
2.117,-0.156,8.593,0.004,0.003,0.018,439516,2017-03-14 01:20:50:091,,,,,,,,,,,,,,,,,,,,,,,,,,,
2.118,-0.159,8.596,0.007,-0.011,0.004,440016,2017-03-14 01:20:50:591,,,,,,,,,,,,,,,,,,,,,,,,,,,
2.136,-0.152,8.548,-0.035,0.005,-0.011,440517,2017-03-14 01:20:51:092,,,,,,,,,,,,,,,,,,,,,,,,,,,
2.093,-0.173,8.557,-0.017,-0.015,-0.012,441017,2017-03-14 01:20:51:592,,,,,,,,,,,,,,,,,,,,,,,,,,,
2.101,-0.15,8.589,-0.009,0.01,0.025,441516,2017-03-14 01:20:52:091,,,,,,,,,,,,,,,,,,,,,,,,,,,
2.097,-0.155,8.589,0.002,-0.01,0.02,442016,2017-03-14 01:20:52:591,,,,,,,,,,,,,,,,,,,,,,,,,,,
2.115,-0.167,8.585,0.005,-0.014,0,442517,2017-03-14 01:20:53:092,,,,,,,,,,,,,,,,,,,,,,,,,,,
2.126,-0.168,8.554,0.015,-0.007,-0.007,443016,2017-03-14 01:20:53:591,,,,,,,,,,,,,,,,,,,,,,,,,,,
2.111,-0.163,8.552,-0.001,0.006,-0.01,443516,2017-03-14 01:20:54:091,,,,,,,,,,,,,,,,,,,,,,,,,,,
2.1,-0.183,8.565,-0.003,0.001,0.006,444016,2017-03-14 01:20:54:591,,,,,,,,,,,,,,,,,,,,,,,,,,,
2.112,-0.145,8.595,0.014,-0.004,0.018,444516,2017-03-14 01:20:55:091,,,,,,,,,,,,,,,,,,,,,,,,,,,
2.117,-0.156,8.566,0.011,0.008,-0.005,445017,2017-03-14 01:20:55:592,,,,,,,,,,,,,,,,,,,,,,,,,,,
2.113,-0.186,8.543,0.015,-0.004,0.018,445516,2017-03-14 01:20:56:091,,,,,,,,,,,,,,,,,,,,,,,,,,,
2.119,-0.163,8.547,-0.007,0.002,0.015,446016,2017-03-14 01:20:56:591,,,,,,,,,,,,,,,,,,,,,,,,,,,
2.109,-0.174,8.569,-0.002,-0.014,0.005,446517,2017-03-14 01:20:57:092,,,,,,,,,,,,,,,,,,,,,,,,,,,
2.133,-0.206,8.579,0.017,-0.043,0.012,447017,2017-03-14 01:20:57:592,,,,,,,,,,,,,,,,,,,,,,,,,,,
2.096,-0.142,8.585,0.008,-0.005,-0.026,447516,2017-03-14 01:20:58:091,,,,,,,,,,,,,,,,,,,,,,,,,,,
2.111,-0.192,8.566,-0.003,-0.013,0.007,448017,2017-03-14 01:20:58:592,,,,,,,,,,,,,,,,,,,,,,,,,,,
2.126,-0.168,8.59,0.026,-0.017,-0.007,448517,2017-03-14 01:20:59:092,,,,,,,,,,,,,,,,,,,,,,,,,,,
2.109,-0.181,8.569,-0.002,-0.034,-0.014,449016,2017-03-14 01:20:59:591,,,,,,,,,,,,,,,,,,,,,,,,,,,
2.117,-0.188,8.56,0.003,-0.022,-0.008,449516,2017-03-14 01:21:00:091,,,,,,,,,,,,,,,,,,,,,,,,,,,
2.123,-0.159,8.558,-0.002,0.009,-0.008,450016,2017-03-14 01:21:00:591,,,,,,,,,,,,,,,,,,,,,,,,,,,
2.118,-0.185,8.569,0.02,-0.002,-0.015,450517,2017-03-14 01:21:01:092,,,,,,,,,,,,,,,,,,,,,,,,,,,
2.095,-0.136,8.535,-0.005,-0.01,0.034,451017,2017-03-14 01:21:01:592,,,,,,,,,,,,,,,,,,,,,,,,,,,
2.102,-0.177,8.561,-0.003,-0.015,-0.005,451516,2017-03-14 01:21:02:091,,,,,,,,,,,,,,,,,,,,,,,,,,,
2.113,-0.193,8.587,0,0.005,-0.02,452016,2017-03-14 01:21:02:591,,,,,,,,,,,,,,,,,,,,,,,,,,,
2.091,-0.167,8.571,0.012,0.007,-0.013,452516,2017-03-14 01:21:03:091,,,,,,,,,,,,,,,,,,,,,,,,,,,
2.094,-0.152,8.547,0.024,0.019,-0.019,453016,2017-03-14 01:21:03:591,,,,,,,,,,,,,,,,,,,,,,,,,,,
2.106,-0.15,8.594,0.008,0.02,0.021,453516,2017-03-14 01:21:04:091,,,,,,,,,,,,,,,,,,,,,,,,,,,
2.114,-0.189,8.567,-0.003,0.003,0.003,454017,2017-03-14 01:21:04:592,,,,,,,,,,,,,,,,,,,,,,,,,,,
2.114,-0.18,8.6,-0.013,0.012,-0.005,454516,2017-03-14 01:21:05:091,,,,,,,,,,,,,,,,,,,,,,,,,,,
2.117,-0.176,8.567,0.004,-0.016,-0.006,455016,2017-03-14 01:21:05:591,,,,,,,,,,,,,,,,,,,,,,,,,,,
2.119,-0.17,8.56,0.009,0.011,0.018,455517,2017-03-14 01:21:06:092,,,,,,,,,,,,,,,,,,,,,,,,,,,
2.112,-0.168,8.573,0.01,-0.024,-0.012,456016,2017-03-14 01:21:06:591,,,,,,,,,,,,,,,,,,,,,,,,,,,
2.103,-0.188,8.571,-0.001,-0.012,-0.002,456516,2017-03-14 01:21:07:091,,,,,,,,,,,,,,,,,,,,,,,,,,,
2.126,-0.175,8.553,0.01,0.009,-0.002,457016,2017-03-14 01:21:07:591,,,,,,,,,,,,,,,,,,,,,,,,,,,
2.141,-0.165,8.542,0.031,0.003,-0.021,457516,2017-03-14 01:21:08:091,,,,,,,,,,,,,,,,,,,,,,,,,,,
2.141,-0.164,8.53,-0.003,-0.01,-0.007,458017,2017-03-14 01:21:08:592,,,,,,,,,,,,,,,,,,,,,,,,,,,
2.1,-0.163,8.553,0.011,-0.006,0.007,458516,2017-03-14 01:21:09:091,,,,,,,,,,,,,,,,,,,,,,,,,,,
2.118,-0.197,8.582,0.009,-0.027,0.012,459015,2017-03-14 01:21:09:590,,,,,,,,,,,,,,,,,,,,,,,,,,,
2.111,-0.17,8.573,0.003,-0.002,0.004,459516,2017-03-14 01:21:10:091,,,,,,,,,,,,,,,,,,,,,,,,,,,
2.127,-0.187,8.578,-0.01,-0.001,-0.007,460017,2017-03-14 01:21:10:592,,,,,,,,,,,,,,,,,,,,,,,,,,,
2.106,-0.161,8.537,0.019,-0.007,-0.008,460516,2017-03-14 01:21:11:091,,,,,,,,,,,,,,,,,,,,,,,,,,,
2.126,-0.182,8.595,0.018,-0.011,0.02,461016,2017-03-14 01:21:11:591,,,,,,,,,,,,,,,,,,,,,,,,,,,
2.102,-0.169,8.57,-0.008,0.001,-0.005,461517,2017-03-14 01:21:12:092,,,,,,,,,,,,,,,,,,,,,,,,,,,
2.117,-0.177,8.585,0.009,0.012,0.007,462020,2017-03-14 01:21:12:595,,,,,,,,,,,,,,,,,,,,,,,,,,,
2.138,-0.195,8.584,0.012,0.001,-0.003,462516,2017-03-14 01:21:13:091,,,,,,,,,,,,,,,,,,,,,,,,,,,
2.133,-0.163,8.596,0.024,0.006,0.019,463016,2017-03-14 01:21:13:591,,,,,,,,,,,,,,,,,,,,,,,,,,,
2.143,-0.17,8.561,0.029,-0.003,-0.003,463515,2017-03-14 01:21:14:090,,,,,,,,,,,,,,,,,,,,,,,,,,,
2.162,-0.159,8.532,0.005,0.075,0.065,464017,2017-03-14 01:21:14:592,,,,,,,,,,,,,,,,,,,,,,,,,,,
2.017,-0.091,8.571,-0.067,0.029,-0.02,464516,2017-03-14 01:21:15:091,,,,,,,,,,,,,,,,,,,,,,,,,,,
2.041,-0.137,8.599,-0.047,0.001,0.012,465017,2017-03-14 01:21:15:592,,,,,,,,,,,,,,,,,,,,,,,,,,,
2.15,-0.186,8.572,0.018,-0.014,0.003,465517,2017-03-14 01:21:16:092,,,,,,,,,,,,,,,,,,,,,,,,,,,
2.352,0.068,8.786,-0.173,-0.185,-0.629,466016,2017-03-14 01:21:16:591,,,,,,,,,,,,,,,,,,,,,,,,,,,
2.58,-0.183,8.522,0.091,-0.351,-0.096,466516,2017-03-14 01:21:17:091,,,,,,,,,,,,,,,,,,,,,,,,,,,
2.344,-0.048,8.73,-0.041,-0.078,0.005,467016,2017-03-14 01:21:17:591,,,,,,,,,,,,,,,,,,,,,,,,,,,
2.142,-0.044,8.566,0.083,-0.046,0.025,467516,2017-03-14 01:21:18:091,,,,,,,,,,,,,,,,,,,,,,,,,,,
2.229,-0.064,8.542,0.014,0.023,-0.015,468016,2017-03-14 01:21:18:591,,,,,,,,,,,,,,,,,,,,,,,,,,,
2.23,-0.105,8.549,0.001,-0.013,-0.011,468517,2017-03-14 01:21:19:092,,,,,,,,,,,,,,,,,,,,,,,,,,,
2.26,-0.113,8.559,0.01,-0.018,-0.007,469017,2017-03-14 01:21:19:592,,,,,,,,,,,,,,,,,,,,,,,,,,,
2.23,-0.139,8.548,-0.007,-0.007,-0.004,469516,2017-03-14 01:21:20:091,,,,,,,,,,,,,,,,,,,,,,,,,,,
2.218,-0.13,8.54,-0.011,-0.011,0.005,470016,2017-03-14 01:21:20:591,,,,,,,,,,,,,,,,,,,,,,,,,,,
2.246,-0.104,8.578,0.011,-0.012,0.077,470517,2017-03-14 01:21:21:092,,,,,,,,,,,,,,,,,,,,,,,,,,,
2.286,-0.14,8.546,0.012,-0.024,0.024,471016,2017-03-14 01:21:21:591,,,,,,,,,,,,,,,,,,,,,,,,,,,
2.206,-0.114,8.533,0.015,0.014,0.007,471517,2017-03-14 01:21:22:092,,,,,,,,,,,,,,,,,,,,,,,,,,,
2.251,-0.133,8.553,0.021,-0.008,0.034,472017,2017-03-14 01:21:22:592,,,,,,,,,,,,,,,,,,,,,,,,,,,
2.266,-0.104,8.558,0.016,0.005,-0.031,472516,2017-03-14 01:21:23:091,,,,,,,,,,,,,,,,,,,,,,,,,,,
2.234,-0.102,8.597,0.016,0.012,0.025,473016,2017-03-14 01:21:23:591,,,,,,,,,,,,,,,,,,,,,,,,,,,
2.264,-0.109,8.549,0.009,-0.02,0.007,473516,2017-03-14 01:21:24:091,,,,,,,,,,,,,,,,,,,,,,,,,,,
2.251,-0.084,8.543,-0.021,0.012,0.014,474017,2017-03-14 01:21:24:592,,,,,,,,,,,,,,,,,,,,,,,,,,,
2.254,-0.113,8.585,-0.018,-0.005,0.033,474516,2017-03-14 01:21:25:091,,,,,,,,,,,,,,,,,,,,,,,,,,,
2.236,-0.108,8.546,0.007,0.022,-0.01,475016,2017-03-14 01:21:25:591,,,,,,,,,,,,,,,,,,,,,,,,,,,
2.229,-0.082,8.539,0.016,-0.04,0.004,475517,2017-03-14 01:21:26:092,,,,,,,,,,,,,,,,,,,,,,,,,,,
2.259,-0.094,8.56,0.004,-0.004,0.037,476016,2017-03-14 01:21:26:591,,,,,,,,,,,,,,,,,,,,,,,,,,,
2.252,-0.13,8.555,0.008,-0.015,-0.007,476516,2017-03-14 01:21:27:091,,,,,,,,,,,,,,,,,,,,,,,,,,,
2.219,-0.095,8.547,0.002,0.003,-0.012,477016,2017-03-14 01:21:27:591,,,,,,,,,,,,,,,,,,,,,,,,,,,
2.254,-0.122,8.553,0.005,0.008,0.012,477516,2017-03-14 01:21:28:091,,,,,,,,,,,,,,,,,,,,,,,,,,,
2.248,-0.058,8.523,0.013,0.042,-0.009,478016,2017-03-14 01:21:28:591,,,,,,,,,,,,,,,,,,,,,,,,,,,
2.12,-0.218,8.567,-0.1,-0.141,0.022,478517,2017-03-14 01:21:29:092,,,,,,,,,,,,,,,,,,,,,,,,,,,
2.092,-0.131,8.652,-0.159,-0.068,-0.018,479016,2017-03-14 01:21:29:591,,,,,,,,,,,,,,,,,,,,,,,,,,,
2.232,-0.006,8.643,-0.128,0.012,0.074,479516,2017-03-14 01:21:30:091,,,,,,,,,,,,,,,,,,,,,,,,,,,
2.193,-0.075,8.586,-0.054,-0.075,0.008,480016,2017-03-14 01:21:30:591,,,,,,,,,,,,,,,,,,,,,,,,,,,
2.321,-0.004,8.562,-0.073,0.047,-0.006,480516,2017-03-14 01:21:31:091,,,,,,,,,,,,,,,,,,,,,,,,,,,
2.219,-0.078,8.508,-0.007,-0.019,0.007,481017,2017-03-14 01:21:31:592,,,,,,,,,,,,,,,,,,,,,,,,,,,
2.218,-0.122,8.531,0.028,0.004,-0.015,481517,2017-03-14 01:21:32:092,,,,,,,,,,,,,,,,,,,,,,,,,,,
2.221,-0.106,8.587,-0.014,0.029,0.023,482017,2017-03-14 01:21:32:592,,,,,,,,,,,,,,,,,,,,,,,,,,,
2.198,-0.12,8.521,0.029,0.03,0.006,482517,2017-03-14 01:21:33:092,,,,,,,,,,,,,,,,,,,,,,,,,,,
2.23,-0.125,8.57,0.008,0,-0.027,483017,2017-03-14 01:21:33:592,,,,,,,,,,,,,,,,,,,,,,,,,,,
2.187,-0.125,8.547,0.009,0.028,-0.019,483518,2017-03-14 01:21:34:093,,,,,,,,,,,,,,,,,,,,,,,,,,,
2.216,-0.109,8.584,-0.005,0.009,-0.027,484016,2017-03-14 01:21:34:591,,,,,,,,,,,,,,,,,,,,,,,,,,,
2.243,-0.091,8.545,-0.006,-0.007,-0.005,484517,2017-03-14 01:21:35:092,,,,,,,,,,,,,,,,,,,,,,,,,,,
2.184,-0.14,8.571,0,0.033,0.004,485016,2017-03-14 01:21:35:591,,,,,,,,,,,,,,,,,,,,,,,,,,,
2.243,-0.143,8.579,0.024,-0.028,0.026,485516,2017-03-14 01:21:36:091,,,,,,,,,,,,,,,,,,,,,,,,,,,
2.194,-0.106,8.546,0.023,0.019,-0.023,486017,2017-03-14 01:21:36:592,,,,,,,,,,,,,,,,,,,,,,,,,,,
2.206,-0.107,8.557,0,0.019,0.024,486516,2017-03-14 01:21:37:091,,,,,,,,,,,,,,,,,,,,,,,,,,,
2.2,-0.125,8.579,0.003,-0.009,-0.003,487016,2017-03-14 01:21:37:591,,,,,,,,,,,,,,,,,,,,,,,,,,,
2.219,-0.098,8.558,0.001,0.015,0.005,487517,2017-03-14 01:21:38:092,,,,,,,,,,,,,,,,,,,,,,,,,,,
2.224,-0.121,8.575,-0.008,0.027,0.033,488017,2017-03-14 01:21:38:592,,,,,,,,,,,,,,,,,,,,,,,,,,,
2.187,-0.073,8.552,-0.009,-0.03,0.026,488516,2017-03-14 01:21:39:091,,,,,,,,,,,,,,,,,,,,,,,,,,,
2.203,-0.119,8.569,-0.009,-0.01,0.011,489017,2017-03-14 01:21:39:592,,,,,,,,,,,,,,,,,,,,,,,,,,,
2.233,-0.12,8.557,0.013,-0.009,0.007,489516,2017-03-14 01:21:40:091,,,,,,,,,,,,,,,,,,,,,,,,,,,
2.215,-0.118,8.535,-0.003,-0.005,0.012,490016,2017-03-14 01:21:40:591,,,,,,,,,,,,,,,,,,,,,,,,,,,
2.21,-0.13,8.549,0.006,-0.001,0.01,490517,2017-03-14 01:21:41:092,,,,,,,,,,,,,,,,,,,,,,,,,,,
2.225,-0.13,8.547,0.003,-0.009,-0.003,491017,2017-03-14 01:21:41:592,,,,,,,,,,,,,,,,,,,,,,,,,,,
2.2,-0.101,8.551,-0.018,0.011,0.003,491516,2017-03-14 01:21:42:091,,,,,,,,,,,,,,,,,,,,,,,,,,,
2.225,-0.114,8.57,-0.026,-0.003,0.017,492018,2017-03-14 01:21:42:593,,,,,,,,,,,,,,,,,,,,,,,,,,,
2.19,-0.156,8.549,-0.019,-0.033,-0.006,492517,2017-03-14 01:21:43:092,,,,,,,,,,,,,,,,,,,,,,,,,,,
2.216,-0.115,8.535,0,0.008,-0.012,493016,2017-03-14 01:21:43:591,,,,,,,,,,,,,,,,,,,,,,,,,,,
2.208,-0.118,8.566,-0.001,0.011,0.027,493517,2017-03-14 01:21:44:092,,,,,,,,,,,,,,,,,,,,,,,,,,,
2.203,-0.148,8.563,0.001,-0.002,-0.006,494016,2017-03-14 01:21:44:591,,,,,,,,,,,,,,,,,,,,,,,,,,,
2.223,-0.114,8.566,0.013,0.01,-0.026,494516,2017-03-14 01:21:45:091,,,,,,,,,,,,,,,,,,,,,,,,,,,
2.228,-0.106,8.555,-0.01,0.003,-0.001,495017,2017-03-14 01:21:45:592,,,,,,,,,,,,,,,,,,,,,,,,,,,
2.212,-0.125,8.567,-0.016,-0.004,-0.015,495516,2017-03-14 01:21:46:091,,,,,,,,,,,,,,,,,,,,,,,,,,,
2.234,-0.136,8.571,-0.028,-0.011,0.023,496016,2017-03-14 01:21:46:591,,,,,,,,,,,,,,,,,,,,,,,,,,,
2.225,-0.114,8.527,0.02,0.045,0.007,496517,2017-03-14 01:21:47:092,,,,,,,,,,,,,,,,,,,,,,,,,,,
2.21,-0.139,8.572,-0.008,-0.014,0.013,497016,2017-03-14 01:21:47:591,,,,,,,,,,,,,,,,,,,,,,,,,,,
2.206,-0.136,8.575,0.008,0.005,0.008,497517,2017-03-14 01:21:48:092,,,,,,,,,,,,,,,,,,,,,,,,,,,
2.217,-0.13,8.546,0.006,-0.007,-0.014,498016,2017-03-14 01:21:48:591,,,,,,,,,,,,,,,,,,,,,,,,,,,
2.217,-0.126,8.564,0.005,0.008,-0.013,498516,2017-03-14 01:21:49:091,,,,,,,,,,,,,,,,,,,,,,,,,,,
2.202,-0.112,8.578,-0.023,-0.012,0.003,499016,2017-03-14 01:21:49:591,,,,,,,,,,,,,,,,,,,,,,,,,,,
2.228,-0.11,8.532,-0.006,-0.007,-0.012,499516,2017-03-14 01:21:50:091,,,,,,,,,,,,,,,,,,,,,,,,,,,
2.215,-0.138,8.529,-0.003,-0.015,-0.024,500016,2017-03-14 01:21:50:591,,,,,,,,,,,,,,,,,,,,,,,,,,,
2.21,-0.138,8.539,0.021,-0.005,0,500517,2017-03-14 01:21:51:092,,,,,,,,,,,,,,,,,,,,,,,,,,,
2.217,-0.145,8.546,0.022,0.013,-0.017,501016,2017-03-14 01:21:51:591,,,,,,,,,,,,,,,,,,,,,,,,,,,
2.215,-0.143,8.536,0.004,0.004,-0.007,501516,2017-03-14 01:21:52:091,,,,,,,,,,,,,,,,,,,,,,,,,,,
2.231,-0.115,8.532,0.008,0.002,-0.034,502016,2017-03-14 01:21:52:591,,,,,,,,,,,,,,,,,,,,,,,,,,,
2.219,-0.106,8.537,-0.005,0.018,0.011,502517,2017-03-14 01:21:53:092,,,,,,,,,,,,,,,,,,,,,,,,,,,
2.216,-0.11,8.555,-0.019,-0.012,0.008,503017,2017-03-14 01:21:53:592,,,,,,,,,,,,,,,,,,,,,,,,,,,
2.218,-0.12,8.54,0,0.002,-0.003,503516,2017-03-14 01:21:54:091,,,,,,,,,,,,,,,,,,,,,,,,,,,
2.196,-0.108,8.557,-0.009,0.008,0.001,504016,2017-03-14 01:21:54:591,,,,,,,,,,,,,,,,,,,,,,,,,,,
2.223,-0.128,8.563,-0.003,0.017,-0.018,504516,2017-03-14 01:21:55:091,,,,,,,,,,,,,,,,,,,,,,,,,,,
2.225,-0.133,8.566,-0.006,0.015,-0.025,505017,2017-03-14 01:21:55:592,,,,,,,,,,,,,,,,,,,,,,,,,,,
2.217,-0.118,8.569,-0.001,0.003,0.02,505516,2017-03-14 01:21:56:091,,,,,,,,,,,,,,,,,,,,,,,,,,,
2.214,-0.125,8.566,0.004,0.006,0.006,506016,2017-03-14 01:21:56:591,,,,,,,,,,,,,,,,,,,,,,,,,,,
2.217,-0.115,8.517,-0.01,0.007,-0.022,506516,2017-03-14 01:21:57:091,,,,,,,,,,,,,,,,,,,,,,,,,,,
2.206,-0.119,8.566,-0.016,-0.003,0.023,507016,2017-03-14 01:21:57:591,,,,,,,,,,,,,,,,,,,,,,,,,,,
2.198,-0.14,8.542,-0.02,-0.016,-0.006,507518,2017-03-14 01:21:58:093,,,,,,,,,,,,,,,,,,,,,,,,,,,
2.237,-0.107,8.549,0.004,-0.012,-0.019,508016,2017-03-14 01:21:58:591,,,,,,,,,,,,,,,,,,,,,,,,,,,
2.206,-0.122,8.558,-0.017,0.004,-0.014,508517,2017-03-14 01:21:59:092,,,,,,,,,,,,,,,,,,,,,,,,,,,
2.194,-0.114,8.557,-0.022,0.003,0.01,509017,2017-03-14 01:21:59:592,,,,,,,,,,,,,,,,,,,,,,,,,,,
2.206,-0.142,8.537,-0.01,-0.019,-0.011,509516,2017-03-14 01:22:00:091,,,,,,,,,,,,,,,,,,,,,,,,,,,
2.225,-0.122,8.554,-0.012,0.014,-0.001,510016,2017-03-14 01:22:00:591,,,,,,,,,,,,,,,,,,,,,,,,,,,
2.231,-0.118,8.555,0.009,0.011,0.017,510516,2017-03-14 01:22:01:091,,,,,,,,,,,,,,,,,,,,,,,,,,,
2.212,-0.094,8.558,-0.006,0.025,0,511016,2017-03-14 01:22:01:591,,,,,,,,,,,,,,,,,,,,,,,,,,,
2.212,-0.089,8.534,-0.002,-0.023,0.017,511517,2017-03-14 01:22:02:092,,,,,,,,,,,,,,,,,,,,,,,,,,,
2.215,-0.125,8.56,-0.005,0.006,0.006,512016,2017-03-14 01:22:02:591,,,,,,,,,,,,,,,,,,,,,,,,,,,
2.221,-0.114,8.591,-0.026,-0.027,-0.02,512516,2017-03-14 01:22:03:091,,,,,,,,,,,,,,,,,,,,,,,,,,,
2.218,-0.114,8.53,-0.001,0.046,0.027,513016,2017-03-14 01:22:03:591,,,,,,,,,,,,,,,,,,,,,,,,,,,
2.204,-0.124,8.567,0.006,-0.007,-0.018,513516,2017-03-14 01:22:04:091,,,,,,,,,,,,,,,,,,,,,,,,,,,
2.19,-0.124,8.561,0.022,-0.002,0.001,514017,2017-03-14 01:22:04:592,,,,,,,,,,,,,,,,,,,,,,,,,,,
2.197,-0.104,8.552,-0.002,0.018,-0.007,514517,2017-03-14 01:22:05:092,,,,,,,,,,,,,,,,,,,,,,,,,,,
2.217,-0.124,8.571,0.014,0.013,0.026,515016,2017-03-14 01:22:05:591,,,,,,,,,,,,,,,,,,,,,,,,,,,
2.239,-0.106,8.511,-0.009,0,0.006,515516,2017-03-14 01:22:06:091,,,,,,,,,,,,,,,,,,,,,,,,,,,
2.217,-0.156,8.577,0.004,0.019,0.027,516017,2017-03-14 01:22:06:592,,,,,,,,,,,,,,,,,,,,,,,,,,,
2.202,-0.104,8.545,-0.009,0.003,-0.024,516517,2017-03-14 01:22:07:092,,,,,,,,,,,,,,,,,,,,,,,,,,,
2.2,-0.124,8.609,-0.024,0.018,0.02,517017,2017-03-14 01:22:07:592,,,,,,,,,,,,,,,,,,,,,,,,,,,
2.211,-0.094,8.548,0.011,-0.017,-0.019,517516,2017-03-14 01:22:08:091,,,,,,,,,,,,,,,,,,,,,,,,,,,
2.23,-0.11,8.57,-0.004,-0.013,-0.04,518017,2017-03-14 01:22:08:592,,,,,,,,,,,,,,,,,,,,,,,,,,,
2.239,-0.114,8.523,0.008,0.002,-0.001,518517,2017-03-14 01:22:09:092,,,,,,,,,,,,,,,,,,,,,,,,,,,
2.225,-0.09,8.566,0.003,-0.002,0.025,519016,2017-03-14 01:22:09:591,,,,,,,,,,,,,,,,,,,,,,,,,,,
2.218,-0.133,8.555,0.02,-0.007,0.032,519516,2017-03-14 01:22:10:091,,,,,,,,,,,,,,,,,,,,,,,,,,,
2.234,-0.12,8.528,0.031,0.055,0.001,520017,2017-03-14 01:22:10:592,,,,,,,,,,,,,,,,,,,,,,,,,,,
2.219,-0.115,8.608,-0.021,-0.042,0.011,520516,2017-03-14 01:22:11:091,,,,,,,,,,,,,,,,,,,,,,,,,,,
2.215,-0.113,8.59,0.003,-0.03,-0.01,521018,2017-03-14 01:22:11:593,,,,,,,,,,,,,,,,,,,,,,,,,,,
2.23,-0.118,8.573,0.009,0,0.005,521516,2017-03-14 01:22:12:091,,,,,,,,,,,,,,,,,,,,,,,,,,,
2.211,-0.122,8.566,-0.006,0.004,-0.001,522016,2017-03-14 01:22:12:591,,,,,,,,,,,,,,,,,,,,,,,,,,,
2.243,-0.113,8.576,0.011,-0.012,-0.014,522516,2017-03-14 01:22:13:091,,,,,,,,,,,,,,,,,,,,,,,,,,,
2.21,-0.13,8.536,-0.001,-0.008,-0.042,523016,2017-03-14 01:22:13:591,,,,,,,,,,,,,,,,,,,,,,,,,,,
2.237,-0.11,8.53,0.02,0.007,-0.021,523516,2017-03-14 01:22:14:091,,,,,,,,,,,,,,,,,,,,,,,,,,,
2.239,-0.119,8.559,0.017,-0.013,-0.006,524016,2017-03-14 01:22:14:591,,,,,,,,,,,,,,,,,,,,,,,,,,,
2.227,-0.12,8.547,0.007,0.016,0.024,524516,2017-03-14 01:22:15:091,,,,,,,,,,,,,,,,,,,,,,,,,,,
2.235,-0.121,8.554,0.011,-0.004,0,525016,2017-03-14 01:22:15:591,,,,,,,,,,,,,,,,,,,,,,,,,,,
2.214,-0.09,8.576,-0.005,0.031,0.021,525516,2017-03-14 01:22:16:091,,,,,,,,,,,,,,,,,,,,,,,,,,,
2.223,-0.11,8.548,0.009,-0.003,0.001,526016,2017-03-14 01:22:16:591,,,,,,,,,,,,,,,,,,,,,,,,,,,
2.218,-0.106,8.554,0.011,-0.01,-0.019,526517,2017-03-14 01:22:17:092,,,,,,,,,,,,,,,,,,,,,,,,,,,
2.237,-0.116,8.585,0.014,0.008,0.026,527016,2017-03-14 01:22:17:591,,,,,,,,,,,,,,,,,,,,,,,,,,,
2.222,-0.101,8.554,0.003,0.015,-0.004,527517,2017-03-14 01:22:18:092,,,,,,,,,,,,,,,,,,,,,,,,,,,
2.211,-0.103,8.543,0.003,0.009,-0.009,528016,2017-03-14 01:22:18:591,,,,,,,,,,,,,,,,,,,,,,,,,,,
2.251,-0.139,8.521,0.004,0.022,-0.015,528516,2017-03-14 01:22:19:091,,,,,,,,,,,,,,,,,,,,,,,,,,,
2.221,-0.108,8.557,0.001,0.003,0.005,529017,2017-03-14 01:22:19:592,,,,,,,,,,,,,,,,,,,,,,,,,,,
2.224,-0.119,8.565,0,-0.008,0.011,529516,2017-03-14 01:22:20:091,,,,,,,,,,,,,,,,,,,,,,,,,,,
2.222,-0.112,8.543,0.014,0.01,0.014,530016,2017-03-14 01:22:20:591,,,,,,,,,,,,,,,,,,,,,,,,,,,
2.231,-0.116,8.572,-0.004,-0.006,-0.002,530516,2017-03-14 01:22:21:091,,,,,,,,,,,,,,,,,,,,,,,,,,,
2.237,-0.116,8.563,-0.011,-0.003,-0.006,531016,2017-03-14 01:22:21:591,,,,,,,,,,,,,,,,,,,,,,,,,,,
2.222,-0.109,8.549,-0.002,-0.006,-0.014,531516,2017-03-14 01:22:22:091,,,,,,,,,,,,,,,,,,,,,,,,,,,
2.211,-0.114,8.522,0.002,-0.001,-0.011,532016,2017-03-14 01:22:22:591,,,,,,,,,,,,,,,,,,,,,,,,,,,
2.215,-0.124,8.571,0.011,0.026,0.007,532516,2017-03-14 01:22:23:091,,,,,,,,,,,,,,,,,,,,,,,,,,,
2.217,-0.125,8.564,0.005,-0.007,0.013,533016,2017-03-14 01:22:23:591,,,,,,,,,,,,,,,,,,,,,,,,,,,
2.217,-0.096,8.529,0.001,0.003,-0.026,533516,2017-03-14 01:22:24:091,,,,,,,,,,,,,,,,,,,,,,,,,,,
2.224,-0.138,8.548,0.007,-0.007,0.033,534017,2017-03-14 01:22:24:592,,,,,,,,,,,,,,,,,,,,,,,,,,,
2.235,-0.124,8.551,-0.014,-0.014,0.015,534516,2017-03-14 01:22:25:091,,,,,,,,,,,,,,,,,,,,,,,,,,,
2.225,-0.119,8.557,-0.005,0.006,0.012,535016,2017-03-14 01:22:25:591,,,,,,,,,,,,,,,,,,,,,,,,,,,
2.223,-0.131,8.56,-0.017,0.015,-0.001,535516,2017-03-14 01:22:26:091,,,,,,,,,,,,,,,,,,,,,,,,,,,
2.234,-0.124,8.541,-0.002,0.009,0.01,536016,2017-03-14 01:22:26:591,,,,,,,,,,,,,,,,,,,,,,,,,,,
2.227,-0.102,8.571,0.012,-0.014,-0.014,536517,2017-03-14 01:22:27:092,,,,,,,,,,,,,,,,,,,,,,,,,,,
2.218,-0.125,8.547,0.001,0.013,-0.003,537016,2017-03-14 01:22:27:591,,,,,,,,,,,,,,,,,,,,,,,,,,,
2.198,-0.126,8.565,0.002,0.014,0.005,537516,2017-03-14 01:22:28:091,,,,,,,,,,,,,,,,,,,,,,,,,,,
2.2,-0.09,8.587,0.016,0.01,0.006,538016,2017-03-14 01:22:28:591,,,,,,,,,,,,,,,,,,,,,,,,,,,
2.24,-0.125,8.575,0.003,0.008,0.009,538516,2017-03-14 01:22:29:091,,,,,,,,,,,,,,,,,,,,,,,,,,,
2.234,-0.116,8.554,-0.002,-0.006,0.006,539018,2017-03-14 01:22:29:593,,,,,,,,,,,,,,,,,,,,,,,,,,,
2.216,-0.128,8.551,0.004,0.009,-0.038,539516,2017-03-14 01:22:30:091,,,,,,,,,,,,,,,,,,,,,,,,,,,
2.219,-0.11,8.564,-0.007,0,0.001,540016,2017-03-14 01:22:30:591,,,,,,,,,,,,,,,,,,,,,,,,,,,
2.215,-0.109,8.494,-0.009,-0.011,0.008,540516,2017-03-14 01:22:31:091,,,,,,,,,,,,,,,,,,,,,,,,,,,
2.27,-0.132,8.521,-0.015,0.001,0.009,541017,2017-03-14 01:22:31:592,,,,,,,,,,,,,,,,,,,,,,,,,,,
2.208,-0.101,8.61,-0.017,0.009,0.058,541517,2017-03-14 01:22:32:092,,,,,,,,,,,,,,,,,,,,,,,,,,,
2.208,-0.101,8.539,-0.013,0.006,0.01,542016,2017-03-14 01:22:32:591,,,,,,,,,,,,,,,,,,,,,,,,,,,
2.24,-0.102,8.51,0.012,-0.013,0.007,542516,2017-03-14 01:22:33:091,,,,,,,,,,,,,,,,,,,,,,,,,,,
2.227,-0.112,8.517,-0.016,0.034,0.003,543016,2017-03-14 01:22:33:591,,,,,,,,,,,,,,,,,,,,,,,,,,,
2.279,-0.142,8.539,0.008,-0.031,0.009,543516,2017-03-14 01:22:34:091,,,,,,,,,,,,,,,,,,,,,,,,,,,
2.235,-0.085,8.551,-0.033,0.03,0.01,544016,2017-03-14 01:22:34:591,,,,,,,,,,,,,,,,,,,,,,,,,,,
2.259,-0.106,8.597,-0.005,-0.001,-0.065,544516,2017-03-14 01:22:35:091,,,,,,,,,,,,,,,,,,,,,,,,,,,
2.295,-0.106,8.603,0.041,0.01,0.039,545017,2017-03-14 01:22:35:592,,,,,,,,,,,,,,,,,,,,,,,,,,,
2.222,-0.143,8.582,-0.027,-0.022,0.014,545516,2017-03-14 01:22:36:091,,,,,,,,,,,,,,,,,,,,,,,,,,,
2.234,-0.101,8.553,-0.008,0.008,-0.04,546017,2017-03-14 01:22:36:592,,,,,,,,,,,,,,,,,,,,,,,,,,,
2.279,-0.085,8.536,-0.013,-0.018,-0.015,546517,2017-03-14 01:22:37:092,,,,,,,,,,,,,,,,,,,,,,,,,,,
2.271,-0.124,8.518,0.023,-0.003,-0.018,547015,2017-03-14 01:22:37:590,,,,,,,,,,,,,,,,,,,,,,,,,,,
2.251,-0.1,8.565,0.002,0.016,0.015,547517,2017-03-14 01:22:38:092,,,,,,,,,,,,,,,,,,,,,,,,,,,
2.234,-0.086,8.563,0.014,0.006,0.001,548016,2017-03-14 01:22:38:591,,,,,,,,,,,,,,,,,,,,,,,,,,,
2.249,-0.092,8.559,-0.026,-0.017,0.01,548516,2017-03-14 01:22:39:091,,,,,,,,,,,,,,,,,,,,,,,,,,,
2.24,-0.1,8.558,0.011,-0.007,-0.022,549016,2017-03-14 01:22:39:591,,,,,,,,,,,,,,,,,,,,,,,,,,,
2.277,-0.112,8.521,0.004,0.001,0.001,549517,2017-03-14 01:22:40:092,,,,,,,,,,,,,,,,,,,,,,,,,,,
2.239,-0.118,8.565,0.008,-0.038,0.015,550016,2017-03-14 01:22:40:591,,,,,,,,,,,,,,,,,,,,,,,,,,,
2.26,-0.122,8.594,0.009,0.01,-0.005,550516,2017-03-14 01:22:41:091,,,,,,,,,,,,,,,,,,,,,,,,,,,
2.251,-0.124,8.57,-0.006,0.01,-0.014,551015,2017-03-14 01:22:41:590,,,,,,,,,,,,,,,,,,,,,,,,,,,
2.239,-0.153,8.542,-0.011,-0.006,-0.009,551516,2017-03-14 01:22:42:091,,,,,,,,,,,,,,,,,,,,,,,,,,,
2.261,-0.089,8.533,0.008,-0.008,-0.007,552016,2017-03-14 01:22:42:591,,,,,,,,,,,,,,,,,,,,,,,,,,,
2.261,-0.119,8.541,0.007,0.042,-0.017,552516,2017-03-14 01:22:43:091,,,,,,,,,,,,,,,,,,,,,,,,,,,
2.263,-0.107,8.554,-0.006,0.012,-0.008,553017,2017-03-14 01:22:43:592,,,,,,,,,,,,,,,,,,,,,,,,,,,
2.27,-0.14,8.554,-0.035,-0.01,-0.007,553516,2017-03-14 01:22:44:091,,,,,,,,,,,,,,,,,,,,,,,,,,,
2.245,-0.101,8.545,-0.057,-0.011,-0.01,554017,2017-03-14 01:22:44:592,,,,,,,,,,,,,,,,,,,,,,,,,,,
2.265,-0.11,8.558,-0.045,0,0.013,554516,2017-03-14 01:22:45:091,,,,,,,,,,,,,,,,,,,,,,,,,,,
2.251,-0.095,8.554,0.025,0.01,-0.019,555017,2017-03-14 01:22:45:592,,,,,,,,,,,,,,,,,,,,,,,,,,,
2.254,-0.088,8.56,0.016,-0.012,-0.026,555517,2017-03-14 01:22:46:092,,,,,,,,,,,,,,,,,,,,,,,,,,,
2.249,-0.089,8.515,0.009,0.01,-0.011,556017,2017-03-14 01:22:46:592,,,,,,,,,,,,,,,,,,,,,,,,,,,
2.241,-0.101,8.511,-0.002,0.017,0.005,556516,2017-03-14 01:22:47:091,,,,,,,,,,,,,,,,,,,,,,,,,,,
2.222,-0.118,8.522,0.057,0.056,-0.021,557016,2017-03-14 01:22:47:591,,,,,,,,,,,,,,,,,,,,,,,,,,,
2.273,-0.12,8.526,0.006,0.048,0.006,557516,2017-03-14 01:22:48:091,,,,,,,,,,,,,,,,,,,,,,,,,,,
2.209,-0.053,8.35,0.003,0.003,-0.024,558017,2017-03-14 01:22:48:592,,,,,,,,,,,,,,,,,,,,,,,,,,,
2.249,-0.126,8.523,0.047,-0.005,0.028,558516,2017-03-14 01:22:49:091,,,,,,,,,,,,,,,,,,,,,,,,,,,
2.23,-0.108,8.56,-0.011,0.054,0.015,559018,2017-03-14 01:22:49:593,,,,,,,,,,,,,,,,,,,,,,,,,,,
2.308,-0.083,8.52,0.056,0.034,-0.027,559517,2017-03-14 01:22:50:092,,,,,,,,,,,,,,,,,,,,,,,,,,,
2.223,-0.106,8.555,-0.021,-0.001,-0.025,560018,2017-03-14 01:22:50:593,,,,,,,,,,,,,,,,,,,,,,,,,,,
2.221,-0.121,8.527,-0.016,-0.01,-0.023,560516,2017-03-14 01:22:51:091,,,,,,,,,,,,,,,,,,,,,,,,,,,
2.252,-0.113,8.541,0.02,0.003,-0.014,561017,2017-03-14 01:22:51:592,,,,,,,,,,,,,,,,,,,,,,,,,,,
2.239,-0.097,8.543,-0.025,-0.024,0.033,561517,2017-03-14 01:22:52:092,,,,,,,,,,,,,,,,,,,,,,,,,,,
2.235,-0.113,8.571,0.017,0.005,-0.015,562016,2017-03-14 01:22:52:591,,,,,,,,,,,,,,,,,,,,,,,,,,,
2.264,-0.136,8.547,-0.002,-0.009,0.003,562516,2017-03-14 01:22:53:091,,,,,,,,,,,,,,,,,,,,,,,,,,,
2.224,-0.12,8.497,-0.002,-0.016,0.01,563016,2017-03-14 01:22:53:591,,,,,,,,,,,,,,,,,,,,,,,,,,,
2.26,-0.102,8.549,0.016,0.003,0.021,563516,2017-03-14 01:22:54:091,,,,,,,,,,,,,,,,,,,,,,,,,,,
2.263,-0.108,8.526,-0.037,0,0.013,564016,2017-03-14 01:22:54:591,,,,,,,,,,,,,,,,,,,,,,,,,,,
2.26,-0.104,8.541,0.023,0.007,0.021,564516,2017-03-14 01:22:55:091,,,,,,,,,,,,,,,,,,,,,,,,,,,
2.24,-0.098,8.563,0.009,0.021,0.015,565016,2017-03-14 01:22:55:591,,,,,,,,,,,,,,,,,,,,,,,,,,,
2.247,-0.098,8.552,-0.014,-0.004,0.004,565516,2017-03-14 01:22:56:091,,,,,,,,,,,,,,,,,,,,,,,,,,,
2.258,-0.132,8.557,-0.014,0.002,0.002,566016,2017-03-14 01:22:56:591,,,,,,,,,,,,,,,,,,,,,,,,,,,
2.269,-0.11,8.541,-0.006,0.01,-0.019,566517,2017-03-14 01:22:57:092,,,,,,,,,,,,,,,,,,,,,,,,,,,
2.255,-0.088,8.536,0.017,0.003,0.012,567016,2017-03-14 01:22:57:591,,,,,,,,,,,,,,,,,,,,,,,,,,,
2.254,-0.113,8.558,-0.009,-0.018,0.017,567516,2017-03-14 01:22:58:091,,,,,,,,,,,,,,,,,,,,,,,,,,,
2.252,-0.091,8.552,0.005,-0.003,0.019,568016,2017-03-14 01:22:58:591,,,,,,,,,,,,,,,,,,,,,,,,,,,
2.24,-0.104,8.558,-0.009,-0.001,0.008,568516,2017-03-14 01:22:59:091,,,,,,,,,,,,,,,,,,,,,,,,,,,
2.257,-0.113,8.526,0.009,-0.001,-0.035,569016,2017-03-14 01:22:59:591,,,,,,,,,,,,,,,,,,,,,,,,,,,
2.252,-0.09,8.579,0.01,0.013,-0.005,569516,2017-03-14 01:23:00:091,,,,,,,,,,,,,,,,,,,,,,,,,,,
2.225,-0.118,8.514,-0.009,-0.012,0.032,570016,2017-03-14 01:23:00:591,,,,,,,,,,,,,,,,,,,,,,,,,,,
2.252,-0.104,8.575,0.008,0.006,0.023,570516,2017-03-14 01:23:01:091,,,,,,,,,,,,,,,,,,,,,,,,,,,
2.261,-0.109,8.563,0.014,0.007,0.015,571016,2017-03-14 01:23:01:591,,,,,,,,,,,,,,,,,,,,,,,,,,,
2.254,-0.11,8.575,-0.021,0.001,0.039,571516,2017-03-14 01:23:02:091,,,,,,,,,,,,,,,,,,,,,,,,,,,
2.24,-0.113,8.517,0.011,-0.012,-0.002,572016,2017-03-14 01:23:02:591,,,,,,,,,,,,,,,,,,,,,,,,,,,
2.255,-0.102,8.53,0.01,0.009,-0.019,572517,2017-03-14 01:23:03:092,,,,,,,,,,,,,,,,,,,,,,,,,,,
2.235,-0.108,8.559,0.019,0.011,-0.019,573016,2017-03-14 01:23:03:591,,,,,,,,,,,,,,,,,,,,,,,,,,,
2.245,-0.082,8.557,-0.01,0.041,-0.024,573516,2017-03-14 01:23:04:091,,,,,,,,,,,,,,,,,,,,,,,,,,,
2.243,-0.122,8.561,0,-0.012,0.02,574016,2017-03-14 01:23:04:591,,,,,,,,,,,,,,,,,,,,,,,,,,,
2.215,-0.06,8.576,-0.025,0.039,0.031,574516,2017-03-14 01:23:05:091,,,,,,,,,,,,,,,,,,,,,,,,,,,
2.245,-0.125,8.553,0.017,0.007,0,575016,2017-03-14 01:23:05:591,,,,,,,,,,,,,,,,,,,,,,,,,,,
2.257,-0.089,8.554,0.021,0.03,-0.001,575517,2017-03-14 01:23:06:092,,,,,,,,,,,,,,,,,,,,,,,,,,,
2.251,-0.091,8.496,0.004,0.022,-0.052,576017,2017-03-14 01:23:06:592,,,,,,,,,,,,,,,,,,,,,,,,,,,
2.223,-0.09,8.52,0.016,-0.019,-0.044,576516,2017-03-14 01:23:07:091,,,,,,,,,,,,,,,,,,,,,,,,,,,
2.252,-0.136,8.545,0.011,-0.032,0,577016,2017-03-14 01:23:07:591,,,,,,,,,,,,,,,,,,,,,,,,,,,
2.218,-0.084,8.573,-0.002,0.013,0.022,577517,2017-03-14 01:23:08:092,,,,,,,,,,,,,,,,,,,,,,,,,,,
2.27,-0.091,8.567,0.002,0.002,0.012,578016,2017-03-14 01:23:08:591,,,,,,,,,,,,,,,,,,,,,,,,,,,
2.209,-0.088,8.581,0.001,-0.027,0.003,578516,2017-03-14 01:23:09:091,,,,,,,,,,,,,,,,,,,,,,,,,,,
2.252,-0.1,8.597,0.007,0,0.009,579016,2017-03-14 01:23:09:591,,,,,,,,,,,,,,,,,,,,,,,,,,,
2.245,-0.112,8.575,0.007,0.009,0.012,579517,2017-03-14 01:23:10:092,,,,,,,,,,,,,,,,,,,,,,,,,,,
2.233,-0.103,8.583,-0.003,0.026,0,580017,2017-03-14 01:23:10:592,,,,,,,,,,,,,,,,,,,,,,,,,,,
2.24,-0.122,8.572,-0.005,0.018,0.012,580516,2017-03-14 01:23:11:091,,,,,,,,,,,,,,,,,,,,,,,,,,,
2.248,-0.104,8.551,-0.004,0.012,0.001,581017,2017-03-14 01:23:11:592,,,,,,,,,,,,,,,,,,,,,,,,,,,
2.264,-0.102,8.537,0.003,0.013,-0.036,581516,2017-03-14 01:23:12:091,,,,,,,,,,,,,,,,,,,,,,,,,,,
2.214,-0.143,8.53,-0.011,0.024,0.016,582016,2017-03-14 01:23:12:591,,,,,,,,,,,,,,,,,,,,,,,,,,,
2.258,-0.113,8.564,0.042,0.004,0.009,582516,2017-03-14 01:23:13:091,,,,,,,,,,,,,,,,,,,,,,,,,,,
2.248,-0.116,8.536,-0.007,-0.022,-0.011,583016,2017-03-14 01:23:13:591,,,,,,,,,,,,,,,,,,,,,,,,,,,
2.209,-0.091,8.591,-0.023,0.006,0.019,583516,2017-03-14 01:23:14:091,,,,,,,,,,,,,,,,,,,,,,,,,,,
2.239,-0.04,8.579,-0.058,-0.001,-0.016,584016,2017-03-14 01:23:14:591,,,,,,,,,,,,,,,,,,,,,,,,,,,
2.243,-0.104,8.57,0.015,-0.017,0.009,584516,2017-03-14 01:23:15:091,,,,,,,,,,,,,,,,,,,,,,,,,,,
2.236,-0.116,8.553,-0.018,0.011,-0.013,585016,2017-03-14 01:23:15:591,,,,,,,,,,,,,,,,,,,,,,,,,,,
2.243,-0.102,8.566,0.004,-0.013,0.009,585516,2017-03-14 01:23:16:091,,,,,,,,,,,,,,,,,,,,,,,,,,,
2.233,-0.118,8.575,0.014,0.005,-0.005,586016,2017-03-14 01:23:16:591,,,,,,,,,,,,,,,,,,,,,,,,,,,
2.237,-0.12,8.545,-0.014,0.011,0.003,586516,2017-03-14 01:23:17:091,,,,,,,,,,,,,,,,,,,,,,,,,,,
2.266,-0.12,8.547,0.016,-0.008,-0.008,587018,2017-03-14 01:23:17:593,,,,,,,,,,,,,,,,,,,,,,,,,,,
2.239,-0.1,8.558,0.005,-0.006,0.01,587516,2017-03-14 01:23:18:091,,,,,,,,,,,,,,,,,,,,,,,,,,,
2.246,-0.083,8.551,0.001,-0.003,0.005,588016,2017-03-14 01:23:18:591,,,,,,,,,,,,,,,,,,,,,,,,,,,
2.249,-0.081,8.576,0.002,0.026,0.019,588516,2017-03-14 01:23:19:091,,,,,,,,,,,,,,,,,,,,,,,,,,,
2.258,-0.125,8.561,0.008,-0.013,0.007,589017,2017-03-14 01:23:19:592,,,,,,,,,,,,,,,,,,,,,,,,,,,
2.24,-0.109,8.554,0.011,-0.006,0.007,589516,2017-03-14 01:23:20:091,,,,,,,,,,,,,,,,,,,,,,,,,,,
2.261,-0.079,8.564,0.002,-0.011,-0.003,590016,2017-03-14 01:23:20:591,,,,,,,,,,,,,,,,,,,,,,,,,,,
2.267,-0.098,8.539,0.014,0.01,-0.011,590516,2017-03-14 01:23:21:091,,,,,,,,,,,,,,,,,,,,,,,,,,,
2.249,-0.121,8.537,-0.003,-0.009,-0.009,591016,2017-03-14 01:23:21:591,,,,,,,,,,,,,,,,,,,,,,,,,,,
2.248,-0.108,8.541,-0.003,-0.005,-0.008,591516,2017-03-14 01:23:22:091,,,,,,,,,,,,,,,,,,,,,,,,,,,
2.239,-0.084,8.56,-0.01,0.02,0.01,592016,2017-03-14 01:23:22:591,,,,,,,,,,,,,,,,,,,,,,,,,,,
2.242,-0.131,8.567,-0.008,-0.018,0.015,592517,2017-03-14 01:23:23:092,,,,,,,,,,,,,,,,,,,,,,,,,,,
2.23,-0.11,8.587,-0.03,0.037,0.078,593017,2017-03-14 01:23:23:592,,,,,,,,,,,,,,,,,,,,,,,,,,,
2.248,-0.125,8.558,0.008,0.001,-0.021,593517,2017-03-14 01:23:24:092,,,,,,,,,,,,,,,,,,,,,,,,,,,
2.247,-0.095,8.547,0.002,0.01,-0.013,594016,2017-03-14 01:23:24:591,,,,,,,,,,,,,,,,,,,,,,,,,,,
2.247,-0.104,8.547,-0.005,0.005,-0.012,594516,2017-03-14 01:23:25:091,,,,,,,,,,,,,,,,,,,,,,,,,,,
2.242,-0.094,8.524,-0.009,0.02,-0.028,595017,2017-03-14 01:23:25:592,,,,,,,,,,,,,,,,,,,,,,,,,,,
2.24,-0.098,8.554,0.015,0.009,-0.041,595516,2017-03-14 01:23:26:091,,,,,,,,,,,,,,,,,,,,,,,,,,,
2.243,-0.095,8.553,0.005,-0.007,-0.01,596016,2017-03-14 01:23:26:591,,,,,,,,,,,,,,,,,,,,,,,,,,,
2.261,-0.084,8.56,0.005,0.004,0.007,596516,2017-03-14 01:23:27:091,,,,,,,,,,,,,,,,,,,,,,,,,,,
2.269,-0.11,8.558,-0.004,-0.012,0.012,597017,2017-03-14 01:23:27:592,,,,,,,,,,,,,,,,,,,,,,,,,,,
2.255,-0.09,8.551,0.005,0.005,0.006,597517,2017-03-14 01:23:28:092,,,,,,,,,,,,,,,,,,,,,,,,,,,
2.247,-0.094,8.553,0.001,0.013,0.019,598016,2017-03-14 01:23:28:591,,,,,,,,,,,,,,,,,,,,,,,,,,,
2.243,-0.128,8.543,0.019,-0.026,-0.015,598516,2017-03-14 01:23:29:091,,,,,,,,,,,,,,,,,,,,,,,,,,,
2.264,-0.116,8.543,-0.004,-0.004,-0.017,599017,2017-03-14 01:23:29:592,,,,,,,,,,,,,,,,,,,,,,,,,,,
2.248,-0.096,8.56,-0.009,0.003,0.022,599516,2017-03-14 01:23:30:091,,,,,,,,,,,,,,,,,,,,,,,,,,,
2.276,-0.11,8.561,0.015,-0.01,0,600016,2017-03-14 01:23:30:591,,,,,,,,,,,,,,,,,,,,,,,,,,,
2.249,-0.115,8.527,-0.013,0.025,0.002,600516,2017-03-14 01:23:31:091,,,,,,,,,,,,,,,,,,,,,,,,,,,
2.251,-0.11,8.549,-0.009,0.02,0.016,601016,2017-03-14 01:23:31:591,,,,,,,,,,,,,,,,,,,,,,,,,,,
2.248,-0.098,8.561,-0.001,0.009,0.012,601516,2017-03-14 01:23:32:091,,,,,,,,,,,,,,,,,,,,,,,,,,,
2.247,-0.108,8.566,0,0.023,0.014,602016,2017-03-14 01:23:32:591,,,,,,,,,,,,,,,,,,,,,,,,,,,
2.246,-0.101,8.533,-0.005,0,0.05,602516,2017-03-14 01:23:33:091,,,,,,,,,,,,,,,,,,,,,,,,,,,
2.295,-0.125,8.545,0.003,0.024,-0.054,603016,2017-03-14 01:23:33:591,,,,,,,,,,,,,,,,,,,,,,,,,,,
2.246,-0.108,8.532,-0.029,-0.004,0.006,603516,2017-03-14 01:23:34:091,,,,,,,,,,,,,,,,,,,,,,,,,,,
2.258,-0.088,8.557,0.003,0.005,0.015,604016,2017-03-14 01:23:34:591,,,,,,,,,,,,,,,,,,,,,,,,,,,
2.253,-0.102,8.563,0.005,0.013,0.016,604516,2017-03-14 01:23:35:091,,,,,,,,,,,,,,,,,,,,,,,,,,,
2.264,-0.092,8.526,0.014,0.014,-0.016,605016,2017-03-14 01:23:35:591,,,,,,,,,,,,,,,,,,,,,,,,,,,
2.253,-0.076,8.566,-0.005,-0.01,-0.035,605516,2017-03-14 01:23:36:091,,,,,,,,,,,,,,,,,,,,,,,,,,,
