ACCELEROMETER X (m/s²),ACCELEROMETER Y (m/s²),ACCELEROMETER Z (m/s²),LINEAR ACCELERATION X (m/s²),LINEAR ACCELERATION Y (m/s²),LINEAR ACCELERATION Z (m/s²),Time since start in ms ,YYYY-MO-DD HH-MI-SS_SSS,,,,,,,,,,,,,,,,,,,,,,,,,,,
-1.312,4.028,6.729,0.67,0.38,0.078,13,2017-03-13 23:14:01:109,,,,,,,,,,,,,,1,,0.14955,,,,,,,,,,,
2.057,1.289,8.894,0.872,0.758,2.359,513,2017-03-13 23:14:01:609,,,,,,,,,,,2.247660101,1.774833183,1.937300526,1,,,,,,,,,,,,,
0.072,4.752,9.59,-2.995,-0.673,-2.041,1013,2017-03-13 23:14:02:109,,,,,,,,,,,8.843081016,6.912156631,4.41647125,1,,,,,,,,,,,,,
7.191,4.424,10.501,3.228,0.405,0.255,1512,2017-03-13 23:14:02:608,,,,,,,,,,,,,,0,,,,,,,,,,,,,
-1.99,5.643,10.675,-0.312,-0.459,-0.999,2013,2017-03-13 23:14:03:109,,,,,,,,,,,,,,1,,,,,,,,,,,,,
-0.76,7.446,5.008,-1.84,-0.988,-1.105,2513,2017-03-13 23:14:03:609,,,,,,,,,,,4.023497552,2.702397766,2.52959689,1,,-0.697598763,0.666099251,-1.629541025,,16.18853255,7.302953688,6.398860428,,,10.68795,-7.89525,-4.58715
-1.705,7.675,5.085,0.294,-0.952,-1.063,3012,2017-03-13 23:14:04:108,,,,,,,,,,,6.938145744,5.091161088,3.256717702,1,,-0.282448688,0.626282511,0.678683655,,48.13786636,25.91992123,10.60621019,,,11.2968,-6.21415,-3.32825
-0.998,6.469,5.412,-1.198,-0.736,-1.708,3513,2017-03-13 23:14:04:609,,,,,,,,,,,4.311093039,2.922432779,2.733382938,1,,-0.42756079,1.000814748,-1.869309227,,18.58552319,8.540613348,7.471382288,,,11.58325,-7.24105,-3.47525
-0.761,7.618,4.092,0.044,-0.795,-1.08,4012,2017-03-13 23:14:05:108,,,,,,,,,,,4.998364316,2.388631028,4.10283298,1,,-1.225341692,0.196385416,-0.955217765,,24.98364584,5.705558188,16.83323846,,,12.6506,-8.02775,-3.9968
-0.018,6.682,3.56,-0.6,-0.625,-1.271,4513,2017-03-13 23:14:05:609,,,,,,,,,,,3.897652781,2.020519648,1.703303798,1,,-0.175631212,0.103116165,-0.669384608,,15.1916972,4.082499648,2.901243828,,,9.782,-6.38595,-3.74385
-0.057,5.558,7.73,0.312,-0.043,0.229,5013,2017-03-13 23:14:06:109,,,,,,,,,,,3.79840082,1.959463317,2.676934826,1,,-0.120111886,0.817235685,0.534384577,,14.42784879,3.83949649,7.16598006,,,9.6939,-7.8559,-2.2572
-1.256,3.182,5.158,1.118,0.815,-0.393,5513,2017-03-13 23:14:06:609,,,,,,,,,,,5.083386059,3.590216348,2.216535257,1,,0.025610625,0.249903503,-0.705052322,,25.84081383,12.88965343,4.913028548,,,9.51915,-6.84015,-2.78955
0.935,4.341,6.371,-0.61,-0.773,3.558,6013,2017-03-13 23:14:07:109,,,,,,,,,,,4.850057618,3.53447609,1.969328801,1,,0.251281881,0.767367629,0.102037868,,23.5230589,12.49252123,3.878255928,,,10.906,-7.12885,-2.54735
0.735,3.042,5.938,0.775,-0.508,4.045,6512,2017-03-13 23:14:07:608,,,,,,,,,,,4.172921397,2.802009248,1.796704069,1,,-0.201502294,1.102070715,-0.685742171,,17.41327299,7.851255828,3.22814551,,,11.04125,-6.31135,-3.7307
1.814,4.834,7.297,-0.379,-0.536,-0.15,7012,2017-03-13 23:14:08:108,,,,,,,,,,,3.960380215,2.999557555,1.596054519,1,,-0.300549027,0.789594604,-0.645786395,,15.68461145,8.997345528,2.547390027,,,10.80805,-6.30865,-3.39185
0.902,1.908,6.382,0.709,-2,1.036,7512,2017-03-13 23:14:08:608,,,,,,,,,,,3.46554051,2.561986094,2.204829029,1,,-0.214261255,1.073947885,-0.379750577,,12.00997103,6.563772748,4.861271048,,,10.44665,-6.40355,-3.89345
4.513,4.038,5.791,0.702,-1.984,1.781,8013,2017-03-13 23:14:09:109,,,,,,,,,,,4.672972351,2.348499502,1.987460845,1,,0.20291514,1.139788051,0.74907865,,1987391876,2225030005,2523754498,,,10.1281,-7.3073,-1.9927
0.597,2.829,5.241,-0.529,0.341,4.555,8513,2017-03-13 23:14:09:609,,,,,,,,,,,4.453182223,2.57319753,2.961200346,1,,0.230741021,1.053535594,-1.493200041,,19.83083191,6.621345528,8.76870749,,,9.7503,-7.29985,-3.0829
3.032,4.201,6.835,1.006,-1.077,1.496,9013,2017-03-13 23:14:10:109,,,,,,,,,,,4.195516324,2.536709007,2.816800737,1,,0.014276812,0.188012676,0.389552017,,17.60235723,6.434892588,7.93436639,,,9.85715,-7.12525,-2.0079
3.242,4.434,6.038,1.724,-0.097,3.349,9512,2017-03-13 23:14:10:608,,,,,,,,,,,3.454461047,2.174134724,2.430680363,1,,0.413918125,0.368396879,-1.426597168,,11.93330113,4.7268618,5.908207028,,,9.35765,-7.027,-1.54835
3.896,4.846,7.126,-0.94,-1.175,2.4,10013,2017-03-13 23:14:11:109,,,,,,,,,,,4.324724014,2.736521553,2.264524683,1,,-0.064761068,0.444889619,-0.905565242,,18.7032378,7.48855021,5.12807204,,,10.455,-7.9507,-1.9306
9.38,1.566,3.665,-5.289,3.102,8.664,10512,2017-03-13 23:14:11:608,,,,,,,,,,,4.106915547,2.49093764,1.681175894,0,,-0.137687589,0.389419946,-0.754030572,,16.86675531,6.204770328,2.826352388,,,9.4077,-7.91015,-2.30775
-3.259,3.74,-7.829,-2.96,-1.384,0.148,11013,2017-03-13 23:14:12:109,,,,,,,,,,,4.322669388,2.054923746,1.763226645,1,,-0.22014736,0.518106173,-0.50995272,,18.68547064,4.2227116,3.1089682,,,9.0356,-7.431,-3.352
-3.795,6.052,-2.73,1.005,4.251,-1.405,11513,2017-03-13 23:14:12:609,,,,,,,,,,,5.007628866,2.01432163,2.706881739,#VALUE!,,-0.322073287,0.541291368,-0.552665427,,25.07634686,4.057491627,7.327208748,,,7.8882,-8.20465,-2.84895
-1.019,7.303,-5.299,1.754,-0.363,-2.391,12012,2017-03-13 23:14:13:108,,,,,,,,,,,4.650486268,1.961471269,2.218952822,1,,-0.237251426,0.572783004,-0.382245233,,21.62702253,3.84736954,4.923751628,,,8.97165,-7.8036,-3.58385
-2.179,4.084,2.456,-0.202,5.32,-5.85,12513,2017-03-13 23:14:13:609,,,,,,,,,,,4.469563017,2.332742576,2.719506854,1,,-0.183842832,0.422234963,-0.2102575,,19.97699356,5.441687927,7.395717528,,,8.3952,-8.54835,-3.17915
-0.007,6.957,1.342,2.551,3.61,3.075,13013,2017-03-13 23:14:14:109,,,,,,,,,,,5.383371344,2.189810754,1.990086915,1,,-0.107636205,0.16118186,-0.246536555,,28.98068703,4.79527114,3.960445928,,,7.65085,-9.1884,-3.33485
2.758,6.679,2.91,-5.579,2.238,1.617,13512,2017-03-13 23:14:14:608,,,,,,,,,,,4.809492625,2.286490037,2.438632703,1,,-0.339457968,0.123764941,-0.100165829,,23.13121931,5.22803669,5.94692946,,,8.1543,-9.5639,-3.1692
17.992,-14.269,-9.435,8.532,-11.869,-5.355,14012,2017-03-13 23:14:15:108,,,,,,,,,,,4.535039086,2.586664827,1.973951187,0,,-0.398747846,-0.088732969,-0.039836104,,20.56657951,6.690834928,3.89648329,,,8.0387,-8.53865,-1.4611
20.958,-3.86,0.176,9.063,2.673,7.395,14513,2017-03-13 23:14:15:609,,,,,,,,,,,,,,0,,,,,,,,,,,,,
8.146,-8.197,-7.175,-3.754,-12.018,-2.59,15013,2017-03-13 23:14:16:109,,,,,,,,,,,,,,0,,,,,,,,,,,,,
17.879,-1.705,-0.558,13.698,4.632,3.75,15512,2017-03-13 23:14:16:608,,,,,,,,,,,4.628408027,2.715270162,2.26289068,0,,-0.267454027,1.280614897,-1.258287189,,21.42216086,7.37269205,5.120674228,,,8.6798,-9.7195,-3.90765
1.408,-11.048,-3.671,0.297,-10.403,-0.243,16012,2017-03-13 23:14:17:108,,,,,,,,,,,3.968606845,2.196054756,2.100538931,1,,-0.260981726,1.656869346,-1.153563877,,15.74984029,4.82265649,4.4122638,,,8.86425,-9.5181,-3.721
20.465,-1.099,-1.459,11.804,1.63,3.937,16513,2017-03-13 23:14:17:609,,,,,,,,,,,3.676915872,1.541930786,1.684414498,0,,-0.375918049,1.650177511,-1.169409222,,13.51971033,2.377550548,2.8372522,,,7.95815,-8.18195,-3.276
2.532,-9.527,-5.447,-3.628,-10.338,1.076,17013,2017-03-13 23:14:18:109,,,,,,,,,,,4.514786871,2.280621108,2.268564963,1,,-0.191758483,1.437340762,-0.962148221,,20.38330049,5.20123264,5.14638699,,,8.21225,-9.4676,-3.1621
18.872,-2.326,-5.392,14.828,4.829,6.116,17513,2017-03-13 23:14:18:609,,,,,,,,,,,4.108041727,2.645499414,2.59518562,0,,-0.237126731,1.158990154,-0.969205151,,16.87600683,6.998667147,6.7349884,,,8.70335,-11.07995,-2.466
-1.16,-11.322,-9.435,-8.826,-11.825,-3.175,18013,2017-03-13 23:14:19:109,,,,,,,,,,,3.332315942,2.250000339,2.341737378,1,,-0.278596062,1.08917554,-1.214299784,,11.10432954,5.062501528,5.483733948,,,7.7226,-9.99765,-2.80895
16.567,-3.118,-4.385,10.51,-0.902,6.023,18513,2017-03-13 23:14:19:609,,,,,,,,,,,4.071067753,2.363462399,2.597494918,0,,-0.290319913,0.809922974,-1.064288324,,16.57359265,5.58595451,6.74697985,,,7.93855,-9.4143,-3.7045
5.073,-11.048,-3.222,-4.609,-9.054,-2.398,19013,2017-03-13 23:14:20:109,,,,,,,,,,,3.967302112,1.445406496,1.738884967,0,,-0.289080267,0.816971287,-1.067791278,,15.73948605,2.08919994,3.023720928,,,7.58955,-8.9354,-2.45815
19.252,2.357,-1.078,22.368,11.543,3.911,19512,2017-03-13 23:14:20:608,,,,,,,,,,,3.601353808,0.915679824,1.836224455,0,,-0.323270724,1.01312371,-1.206622051,,12.96974925,0.83846954,3.371720248,,,7.40245,-8.7574,-3.00905
1.064,-7.565,-8.105,3.779,-3.921,3.113,20013,2017-03-13 23:14:21:109,,,,,,,,,,,3.293641667,2.024013174,2.606649696,1,,-0.515190522,1.03835452,-1.213501221,,10.84807543,4.096629328,6.79462264,,,6.93985,-8.79585,-3.6586
10.934,-6.134,-12.803,3.164,3.525,3.02,20513,2017-03-13 23:14:21:609,,,,,,,,,,,,,,0,,,,,,,,,,,,,
5.985,-12.649,-3.812,-3.347,-2.451,-4.393,21013,2017-03-13 23:14:22:109,,,,,,,,,,,,,,0,,,,,,,,,,,,,
17.555,-2.278,-3.425,8.07,-0.053,6.879,21513,2017-03-13 23:14:22:609,,,,,,,,,,,,,,0,,,,,470.68,,,,,,,,
3.811,-11.47,-1.439,0.999,-9.122,1.411,22012,2017-03-13 23:14:23:108,,,,,,,,,,,,,,1,,,,,,,,,,,,,
11.62,-7.375,-3.04,7.331,0.078,0.726,22513,2017-03-13 23:14:23:609,,,,,,,,,,,,,,0,,,,,,,,,,,,,
9.203,-9.799,-4.001,-0.479,-6.188,-0.005,23012,2017-03-13 23:14:24:108,,,,,,,,,,,,,,0,,,,,,,,,,,,,
13.341,-1.541,-0.622,7.726,1.453,-1.183,23513,2017-03-13 23:14:24:609,,,,,,,,,,,,,,0,,,,,,,,,,,,,
7.054,-10.943,-5.561,6.304,0.532,2.427,24012,2017-03-13 23:14:25:108,,,,,,,,,,,,,,0,,,,,,,,,,,,,
11.849,-7.23,-2.846,3.753,-1.137,-3.461,24512,2017-03-13 23:14:25:608,,,,,,,,,,,,,,0,,,,,,,,,,,,,
7.213,-7.99,-2.114,2.087,-2.922,0.506,25013,2017-03-13 23:14:26:109,,,,,,,,,,,,,,0,,,,,,,,,,,,,
12.86,-7.668,-4.982,3.371,-0.977,-4.223,25514,2017-03-13 23:14:26:610,,,,,,,,,,,,,,0,,,,,,,,,,,,,
8.398,-8.238,-3.975,1.061,-4.717,0.206,26012,2017-03-13 23:14:27:108,,,,,,,,,,,,,,0,,,,,,,,,,,,,
13.071,-5.889,-4.544,-4.533,-6.736,-6.735,26513,2017-03-13 23:14:27:609,,,,,,,,,,,,,,0,,,,,,,,,,,,,
9.325,-10.653,-4.773,6.695,-1.556,-0.009,27012,2017-03-13 23:14:28:108,,,,,,,,,,,,,,0,,,,,,,,,,,,,
14.182,-5.657,-6.048,-2.332,-3.535,-1.869,27513,2017-03-13 23:14:28:609,,,,,,,,,,,,,,0,,,,,,,,,,,,,
13.054,-8.573,-3.781,5.687,-3.439,0.006,28012,2017-03-13 23:14:29:108,,,,,,,,,,,,,,0,,,,,,,,,,,,,
14.269,-7.479,-6.233,-3.289,-9.102,-1.662,28513,2017-03-13 23:14:29:609,,,,,,,,,,,,,,0,,,,,,,,,,,,,
15.122,-9.305,-3.949,10.556,4.373,0.382,29013,2017-03-13 23:14:30:109,,,,,,,,,,,,,,0,,,,,,,,,,,,,
13.849,-9.469,-5.69,0.31,-6.075,-2.959,29513,2017-03-13 23:14:30:609,,,,,,,,,,,,,,0,,,,,,,,,,,,,
14.276,-10.404,-5.31,12.794,7.301,4.281,30012,2017-03-13 23:14:31:108,,,,,,,,,,,,,,0,,,,,,,,,,,,,
11.5,-8.839,-5.231,-4.855,-9.737,0.676,30513,2017-03-13 23:14:31:609,,,,,,,,,,,,,,0,,,,,,,,,,,,,
15.44,-9.751,-3.954,12.888,7.001,-1.976,31012,2017-03-13 23:14:32:108,,,,,,,,,,,,,,0,,,,,,,,,,,,,
7.314,-7.99,-9.196,-1.98,-7.42,0.066,31512,2017-03-13 23:14:32:608,,,,,,,,,,,,,,0,,,,,,,,,,,,,
17.136,-1.15,-5.415,13.734,5.489,5.661,32012,2017-03-13 23:14:33:108,,,,,,,,,,,,,,0,,,,,,,,,,,,,
8.083,-9.405,-4.982,-3.659,-10.234,3.004,32513,2017-03-13 23:14:33:609,,,,,,,,,,,,,,0,,,,,,,,,,,,,
14.784,-5.018,0.203,12.244,8.051,2.413,33012,2017-03-13 23:14:34:108,,,,,,,,,,,,,,0,,,,,,,,,,,,,
4.954,-9.499,-4.064,-5.238,-11.366,2.68,33512,2017-03-13 23:14:34:608,,,,,,,,,,,,,,1,,,,,,,,,,,,,
19.559,0.193,-3.492,11.976,7.414,4.112,34012,2017-03-13 23:14:35:108,,,,,,,,,,,,,,0,,,,,,,,,,,,,
1.715,-11.37,-1.482,-0.263,-8.691,-0.999,34513,2017-03-13 23:14:35:609,,,,,,,,,,,,,,1,,,,,,,,,,,,,
22.599,1.724,5.104,9.12,-0.207,7.684,35013,2017-03-13 23:14:36:109,,,,,,,,,,,,,,0,,,,,,,,,,,,,
0.205,-10.87,-3.117,-3.7,-12.504,-3.336,35513,2017-03-13 23:14:36:609,,,,,,,,,,,,,,1,,,,,,,,,,,,,
20.52,1.465,-5.072,13.401,7.289,4.786,36012,2017-03-13 23:14:37:108,,,,,,,,,,,,,,0,,,,,,,,,,,,,
3.655,-11.109,-5.775,-1.578,-9.023,-0.473,36512,2017-03-13 23:14:37:608,,,,,,,,,,,,,,1,,,,,,,,,,,,,
16.354,-0.544,-2.743,6.259,2.437,3.703,37013,2017-03-13 23:14:38:109,,,,,,,,,,,,,,0,,,,,,,,,,,,,
9.446,-11.007,1.272,-2.238,-8.371,0.154,37513,2017-03-13 23:14:38:609,,,,,,,,,,,,,,0,,,,,,,,,,,,,
14.913,-2.41,-0.213,10.915,2.011,4.359,38012,2017-03-13 23:14:39:108,,,,,,,,,,,,,,0,,,,,,,,,,,,,
-1.748,-10.66,-8.255,5.425,-10.214,0.247,38513,2017-03-13 23:14:39:609,,,,,,,,,,,,,,1,,,,,,,,,,,,,
17.81,3.042,-0.31,12.998,3.305,6.15,39012,2017-03-13 23:14:40:108,,,,,,,,,,,,,,0,,,,,,,,,,,,,
7.421,-10.681,-4.533,-5.87,-10.127,-2.039,39513,2017-03-13 23:14:40:609,,,,,,,,,,,,,,0,,,,,,,,,,,,,
16.984,-1.881,-0.498,10.923,0.046,6.009,40013,2017-03-13 23:14:41:109,,,,,,,,,,,,,,0,,,,,,,,,,,,,
5.536,-11.918,-3.222,3.535,-5.617,0.895,40513,2017-03-13 23:14:41:609,,,,,,,,,,,,,,0,,,,,,,,,,,,,
15.573,-2.938,-2.552,8.234,0.182,-0.387,41013,2017-03-13 23:14:42:109,,,,,,,,,,,,,,0,,,,,,,,,,,,,
9.14,-8.768,-3.495,-0.431,-6.128,2.208,41512,2017-03-13 23:14:42:608,,,,,,,,,,,,,,0,,,,,,,,,,,,,
16.238,-6,-3.352,10.611,-1.562,2.904,42013,2017-03-13 23:14:43:109,,,,,,,,,,,,,,0,,,,,,,,,,,,,
7.493,-9.095,-2.58,6.476,-2.058,2.718,42512,2017-03-13 23:14:43:608,,,,,,,,,,,,,,0,,,,,,,,,,,,,
13.771,-9.444,-1.187,-1.57,-3.228,-8.331,43013,2017-03-13 23:14:44:109,,,,,,,,,,,,,,0,,,,,,,,,,,,,
14.505,-9.727,-3.072,6.891,1.678,1.735,43512,2017-03-13 23:14:44:608,,,,,,,,,,,,,,0,,,,,,,,,,,,,
5.299,-7.424,-11.652,-2.948,-3.767,-4.692,44012,2017-03-13 23:14:45:108,,,,,,,,,,,,,,0,,,,,,,,,,,,,
13.622,-7.05,-4.183,13.493,7.438,2.95,44513,2017-03-13 23:14:45:609,,,,,,,,,,,,,,0,,,,,,,,,,,,,
4.448,-8.472,0.215,-2.61,-7.934,2.741,45012,2017-03-13 23:14:46:108,,,,,,,,,,,,,,1,,,,,,,,,,,,,
17.161,-0.081,-1.974,11.118,5.572,2.34,45512,2017-03-13 23:14:46:608,,,,,,,,,,,,,,0,,,,,,,,,,,,,
4.412,-8.204,-3.141,-6.849,-9.451,0.053,46013,2017-03-13 23:14:47:109,,,,,,,,,,,,,,1,,,,,,,,,,,,,
14.574,-3.722,-3.277,7.308,1.349,0.844,46512,2017-03-13 23:14:47:608,,,,,,,,,,,,,,0,,,,,,,,,,,,,
8.967,-8.272,-2.481,-0.548,-6.332,2.278,47012,2017-03-13 23:14:48:108,,,,,,,,,,,,,,0,,,,,,,,,,,,,
14.793,-8.283,-1.289,7.336,-2.261,2.809,47513,2017-03-13 23:14:48:609,,,,,,,,,,,,,,0,,,,,,,,,,,,,
9.083,-9.392,-4.471,2.71,-8.082,0.929,48013,2017-03-13 23:14:49:109,,,,,,,,,,,,,,0,,,,,,,,,,,,,
15.894,-10.412,-2.62,-3.441,-3.051,-3.199,48513,2017-03-13 23:14:49:609,,,,,,,,,,,,,,0,,,,,,,,,,,,,
10.701,-7.07,-4.814,6.675,3.074,4.993,49013,2017-03-13 23:14:50:109,,,,,,,,,,,,,,0,,,,,,,,,,,,,
13.471,-6.668,-9.86,-4.966,-7.658,2.125,49512,2017-03-13 23:14:50:608,,,,,,,,,,,,,,0,,,,,,,,,,,,,
17.239,-8.729,-3.114,14.77,2.136,-1.119,50012,2017-03-13 23:14:51:108,,,,,,,,,,,,,,0,,,,,,,,,,,,,
16.785,-8.553,-8.698,-9.767,-11.1,-7.57,50513,2017-03-13 23:14:51:609,,,,,,,,,,,,,,0,,,,,,,,,,,,,
14.699,-8.228,0.214,17.143,6.052,3.753,51013,2017-03-13 23:14:52:109,,,,,,,,,,,,,,0,,,,,,,,,,,,,
10.356,-6.179,-15.068,-9.245,-10.33,2.676,51512,2017-03-13 23:14:52:608,,,,,,,,,,,,,,0,,,,,,,,,,,,,
14.777,-10.068,-2.862,10.216,-1.556,3.316,52013,2017-03-13 23:14:53:109,,,,,,,,,,,,,,0,,,,,,,,,,,,,
16.706,-6.527,-4.13,-6.627,-11.193,-3.444,52513,2017-03-13 23:14:53:609,,,,,,,,,,,,,,0,,,,,,,,,,,,,
7.262,-7.461,-2.351,8.694,-1.272,4.215,53012,2017-03-13 23:14:54:108,,,,,,,,,,,,,,0,,,,,,,,,,,,,
10.42,-6.608,-0.172,4.683,0.098,-4.558,53513,2017-03-13 23:14:54:609,,,,,,,,,,,,,,0,,,,,,,,,,,,,
11.553,-10.926,-1.596,4.21,-7.475,1.004,54012,2017-03-13 23:14:55:108,,,,,,,,,,,,,,0,,,,,,,,,,,,,
15.421,-5.761,-2.924,-0.74,-5.923,-0.882,54513,2017-03-13 23:14:55:609,,,,,,,,,,,,,,0,,,,,,,,,,,,,
10.44,-12.488,-1.155,10.809,-1.989,-1.49,55013,2017-03-13 23:14:56:109,,,,,,,,,,,,,,0,,,,,,,,,,,,,
14.391,-5.718,-7.169,9.336,-2.538,-1.996,55512,2017-03-13 23:14:56:608,,,,,,,,,,,,,,0,,,,,,,,,,,,,
11.504,-10.997,-1.064,6.015,-5.579,0.406,56012,2017-03-13 23:14:57:108,,,,,,,,,,,,,,0,,,,,,,,,,,,,
8.572,-8.805,-6.538,-8.491,-8.808,-3.798,56513,2017-03-13 23:14:57:609,,,,,,,,,,,,,,0,,,,,,,,,,,,,
14.636,-11.067,-3.283,16.566,8.603,-1.142,57013,2017-03-13 23:14:58:109,,,,,,,,,,,,,,0,,,,,,,,,,,,,
10.944,-6.971,-10.074,-8.897,-7.849,2.376,57512,2017-03-13 23:14:58:608,,,,,,,,,,,,,,0,,,,,,,,,,,,,
14.754,-4.727,-5.98,14.328,7.429,-5.668,58013,2017-03-13 23:14:59:109,,,,,,,,,,,,,,0,,,,,,,,,,,,,
-3.094,-9.593,1.85,-1.276,-13.539,2.405,58512,2017-03-13 23:14:59:608,,,,,,,,,,,,,,1,,,,,,,,,,,,,
22.806,-2.641,-7.201,8.051,4.191,-1.09,59013,2017-03-13 23:15:00:109,,,,,,,,,,,,,,0,,,,,,,,,,,,,
12.841,-8.508,1.379,1.707,-5.747,-1.028,59513,2017-03-13 23:15:00:609,,,,,,,,,,,,,,0,,,,,,,,,,,,,
16.718,-3.109,-7.122,8.168,5.97,-5.882,60013,2017-03-13 23:15:01:109,,,,,,,,,,,,,,0,,,,,,,,,,,,,
6.387,-7.215,-2.612,-2.067,-3.87,-0.743,60513,2017-03-13 23:15:01:609,,,,,,,,,,,,,,0,,,,,,,,,,,,,
12.866,-5.417,-2.212,4.039,1.72,-2.284,61013,2017-03-13 23:15:02:109,,,,,,,,,,,,,,0,,,,,,,,,,,,,
5.469,-8.599,-4.173,-0.545,-6.727,-0.869,61513,2017-03-13 23:15:02:609,,,,,,,,,,,,,,0,,,,,,,,,,,,,
12.358,-6.971,-1.46,2.685,-0.494,-0.568,62012,2017-03-13 23:15:03:108,,,,,,,,,,,,,,0,,,,,,,,,,,,,
9.144,-7.558,-3.757,6.879,3.668,1.986,62513,2017-03-13 23:15:03:609,,,,,,,,,,,,,,0,,,,,,,,,,,,,
11.969,-6.393,-5.825,-4.028,-5.072,-0.216,63012,2017-03-13 23:15:04:108,,,,,,,,,,,,,,0,,,,,,,,,,,,,
10.883,-7.569,-4.341,4.757,1.657,2.177,63512,2017-03-13 23:15:04:608,,,,,,,,,,,,,,0,,,,,,,,,,,,,
8.216,-6.211,-3.886,-0.875,-4.104,1.518,64013,2017-03-13 23:15:05:109,,,,,,,,,,,,,,0,,,,,,,,,,,,,
14.712,-2.871,-1.587,9.647,3.588,3.843,64512,2017-03-13 23:15:05:608,,,,,,,,,,,,,,0,,,,,,,,,,,,,
7.183,-6.966,-3.081,-4.699,-8.613,-2.98,65013,2017-03-13 23:15:06:109,,,,,,,,,,,,,,0,,,,,,,,,,,,,
13.685,-4.378,-2.318,12.881,4.649,3.263,65512,2017-03-13 23:15:06:608,,,,,,,,,,,,,,0,,,,,,,,,,,,,
5.746,-9.99,-1.802,-2.098,-8.472,3.329,66013,2017-03-13 23:15:07:109,,,,,,,,,,,,,,0,,,,,,,,,,,,,
13.967,-2.911,-5.482,6.642,2.209,1.592,66512,2017-03-13 23:15:07:608,,,,,,,,,,,,,,0,,,,,,,,,,,,,
1.335,-10.231,-3.055,0.998,-7.377,1.129,67013,2017-03-13 23:15:08:109,,,,,,,,,,,,,,1,,,,,,,,,,,,,
13.974,-4.64,-2.718,6.854,1.308,1.894,67513,2017-03-13 23:15:08:609,,,,,,,,,,,,,,0,,,,,,,,,,,,,
6.507,-7.08,-6.376,-3.906,-7.017,1.113,68013,2017-03-13 23:15:09:109,,,,,,,,,,,,,,0,,,,,,,,,,,,,
10.957,-5.712,-2.818,-0.231,-1.11,-3.634,68513,2017-03-13 23:15:09:609,,,,,,,,,,,,,,0,,,,,,,,,,,,,
7.639,-7.109,-3.419,2.843,-0.875,0.888,69013,2017-03-13 23:15:10:109,,,,,,,,,,,,,,0,,,,,,,,,,,,,
5.925,-6.789,-6.833,-2.566,-2.241,-5.12,69513,2017-03-13 23:15:10:609,,,,,,,,,,,,,,0,,,,,,,,,,,,,
10.932,-5.157,-3.025,6.017,3.072,1.135,70013,2017-03-13 23:15:11:109,,,,,,,,,,,,,,0,,,,,,,,,,,,,
10.028,-7.855,-7.872,-6.593,-15.87,4.82,70513,2017-03-13 23:15:11:609,,,,,,,,,,,,,,0,,,,,,,,,,,,,
14.429,-6.399,-4.5,12.078,3.967,3.412,71012,2017-03-13 23:15:12:108,,,,,,,,,,,,,,0,,,,,,,,,,,,,
4.295,-10.109,4.331,-3.74,-9.869,0.518,71513,2017-03-13 23:15:12:609,,,,,,,,,,,,,,1,,,,,,,,,,,,,
17.528,-2.887,-2.765,12.245,3.912,1.188,72012,2017-03-13 23:15:13:108,,,,,,,,,,,,,,0,,,,,,,,,,,,,
1.638,-10.122,-1.393,-1.251,-7.295,2.22,72513,2017-03-13 23:15:13:609,,,,,,,,,,,,,,1,,,,,,,,,,,,,
13.936,-5.277,-1.09,6.108,0.777,1.06,73013,2017-03-13 23:15:14:109,,,,,,,,,,,,,,0,,,,,,,,,,,,,
5.34,-9.399,-5.488,-3.269,-5.356,0.767,73513,2017-03-13 23:15:14:609,,,,,,,,,,,,,,0,,,,,,,,,,,,,
12.586,-7.001,2.881,5.05,-0.442,4.175,74013,2017-03-13 23:15:15:109,,,,,,,,,,,,,,0,,,,,,,,,,,,,
7.328,-9.82,-1.143,-0.705,-2.511,3.242,74512,2017-03-13 23:15:15:608,,,,,,,,,,,,,,0,,,,,,,,,,,,,
12.791,-7.343,-0.722,-0.475,-1.455,-0.827,75012,2017-03-13 23:15:16:108,,,,,,,,,,,,,,0,,,,,,,,,,,,,
7.163,-8.862,-3.527,1.988,-1.687,7.122,75513,2017-03-13 23:15:16:609,,,,,,,,,,,,,,0,,,,,,,,,,,,,
11.322,-7.181,-4.479,-0.407,-1.577,-2.327,76012,2017-03-13 23:15:17:108,,,,,,,,,,,,,,0,,,,,,,,,,,,,
8.531,-9.054,-0.866,10.863,3.414,2.438,76512,2017-03-13 23:15:17:608,,,,,,,,,,,,,,0,,,,,,,,,,,,,
5.682,-9.293,-4.446,-4.338,-4.768,-2.927,77012,2017-03-13 23:15:18:108,,,,,,,,,,,,,,0,,,,,,,,,,,,,
11.568,-6.359,-0.287,7.202,4.165,3.846,77512,2017-03-13 23:15:18:608,,,,,,,,,,,,,,0,,,,,,,,,,,,,
7.92,-9.107,-3.788,-2.16,-3.076,-3.786,78012,2017-03-13 23:15:19:108,,,,,,,,,,,,,,0,,,,,,,,,,,,,
10.977,-9.518,-2.858,12.723,5.734,3.099,78513,2017-03-13 23:15:19:609,,,,,,,,,,,,,,0,,,,,,,,,,,,,
7.331,-10.037,-2.156,-7.009,-8.369,0.644,79012,2017-03-13 23:15:20:108,,,,,,,,,,,,,,0,,,,,,,,,,,,,
12.553,-6.338,-1.951,11.484,6.573,-0.1,79512,2017-03-13 23:15:20:608,,,,,,,,,,,,,,0,,,,,,,,,,,,,
8.913,-10.486,-5.525,-8.216,-5.608,-2.226,80013,2017-03-13 23:15:21:109,,,,,,,,,,,,,,0,,,,,,,,,,,,,
11.891,-8.836,-2.44,14.224,6.442,1.153,80513,2017-03-13 23:15:21:609,,,,,,,,,,,,,,0,,,,,,,,,,,,,
6.318,-8.57,-5.065,-8.045,-8.153,1.386,81012,2017-03-13 23:15:22:108,,,,,,,,,,,,,,0,,,,,,,,,,,,,
10.781,-6.018,-0.091,15.807,7.021,1.637,81512,2017-03-13 23:15:22:608,,,,,,,,,,,,,,0,,,,,,,,,,,,,
3.862,-8.398,-8.545,-7.865,-6.251,-2.209,82012,2017-03-13 23:15:23:108,,,,,,,,,,,,,,1,,,,,,,,,,,,,
16.055,-2.978,-3.457,10.211,3.488,3.601,82512,2017-03-13 23:15:23:608,,,,,,,,,,,,,,0,,,,,,,,,,,,,
3.344,-11.279,-1.238,-2.62,-8.901,0.721,83013,2017-03-13 23:15:24:109,,,,,,,,,,,,,,1,,,,,,,,,,,,,
12.686,-4.878,-1.853,13.089,7.519,2.931,83513,2017-03-13 23:15:24:609,,,,,,,,,,,,,,0,,,,,,,,,,,,,
2.333,-8.988,-0.077,-4.108,-10.379,-0.176,84013,2017-03-13 23:15:25:109,,,,,,,,,,,,,,1,,,,,,,,,,,,,
16.87,-0.357,-2.594,9.669,2.139,2.403,84513,2017-03-13 23:15:25:609,,,,,,,,,,,,,,0,,,,,,,,,,,,,
6.235,-12.821,0.963,-2.879,-7.889,-3.349,85013,2017-03-13 23:15:26:109,,,,,,,,,,,,,,0,,,,,,,,,,,,,
16.046,-1.083,-2.443,9.981,1.948,6.798,85513,2017-03-13 23:15:26:609,,,,,,,,,,,,,,0,,,,,,,,,,,,,
4.943,-10.318,-2.273,-4.538,-9.094,1.06,86013,2017-03-13 23:15:27:109,,,,,,,,,,,,,,1,,,,,,,,,,,,,
15.439,-2.497,-1.202,6.886,2.392,-1.05,86513,2017-03-13 23:15:27:609,,,,,,,,,,,,,,0,,,,,,,,,,,,,
3.259,-10.197,-4.384,-1.214,-6.609,2.103,87012,2017-03-13 23:15:28:108,,,,,,,,,,,,,,1,,,,,,,,,,,,,
16.424,-2.484,-0.646,5.26,3.209,0.831,87513,2017-03-13 23:15:28:609,,,,,,,,,,,,,,0,,,,,,,,,,,,,
2.589,-10.227,-5.693,-1.857,-6.787,0.228,88012,2017-03-13 23:15:29:108,,,,,,,,,,,,,,1,,,,,,,,,,,,,
12.041,-4.645,-2.352,5.166,0.795,-0.336,88513,2017-03-13 23:15:29:609,,,,,,,,,,,,,,0,,,,,,,,,,,,,
7.1,-6.587,-3.016,1.925,-3.969,0.962,89012,2017-03-13 23:15:30:108,,,,,,,,,,,,,,0,,,,,,,,,,,,,
13.254,-5.156,-3.86,2.597,-1.675,0.644,89513,2017-03-13 23:15:30:609,,,,,,,,,,,,,,0,,,,,,,,,,,,,
10.543,-7.965,-1.267,2.841,-3.219,2.884,90013,2017-03-13 23:15:31:109,,,,,,,,,,,,,,0,,,,,,,,,,,,,
9.771,-7.819,-4.274,-3.819,-5.505,0.043,90513,2017-03-13 23:15:31:609,,,,,,,,,,,,,,0,,,,,,,,,,,,,
10.397,-8.752,-2.489,12.536,5.737,-1.353,91013,2017-03-13 23:15:32:109,,,,,,,,,,,,,,0,,,,,,,,,,,,,
9.909,-8.325,-3.796,-3.48,-6.448,0.062,91512,2017-03-13 23:15:32:608,,,,,,,,,,,,,,0,,,,,,,,,,,,,
12.683,-6.465,-2.759,10.903,6.135,-1.428,92013,2017-03-13 23:15:33:109,,,,,,,,,,,,,,0,,,,,,,,,,,,,
5.904,-10.176,-3.302,-5.28,-9.836,2.418,92512,2017-03-13 23:15:33:608,,,,,,,,,,,,,,0,,,,,,,,,,,,,
14.778,-3.026,-6.043,10.372,5.931,4.624,93014,2017-03-13 23:15:34:110,,,,,,,,,,,,,,0,,,,,,,,,,,,,
7.767,-10.469,-2.267,-5.592,-9.688,-1.036,93513,2017-03-13 23:15:34:609,,,,,,,,,,,,,,0,,,,,,,,,,,,,
14.087,-5.792,-1.756,12.553,5.328,5.343,94013,2017-03-13 23:15:35:109,,,,,,,,,,,,,,0,,,,,,,,,,,,,
1.843,-11.491,-0.272,-4.082,-8.247,-0.006,94514,2017-03-13 23:15:35:610,,,,,,,,,,,,,,1,,,,,,,,,,,,,
19.461,-0.092,-3.319,9.065,1.889,5.152,95013,2017-03-13 23:15:36:109,,,,,,,,,,,,,,0,,,,,,,,,,,,,
4.763,-8.492,-5.941,-5.369,-8.646,-2.354,95513,2017-03-13 23:15:36:609,,,,,,,,,,,,,,1,,,,,,,,,,,,,
20.753,0.591,-1.753,9.547,2.36,4.007,96013,2017-03-13 23:15:37:109,,,,,,,,,,,,,,0,,,,,,,,,,,,,
4.812,-12.25,0.696,1.813,-4.258,1.437,96513,2017-03-13 23:15:37:609,,,,,,,,,,,,,,1,,,,,,,,,,,,,
16.49,-2.116,-1.122,7.71,-0.189,2.478,97012,2017-03-13 23:15:38:108,,,,,,,,,,,,,,0,,,,,,,,,,,,,
7.511,-11.583,1.469,-0.665,-5.897,1.55,97513,2017-03-13 23:15:38:609,,,,,,,,,,,,,,0,,,,,,,,,,,,,
14.992,-6.101,-0.796,8.532,0.986,2.357,98013,2017-03-13 23:15:39:109,,,,,,,,,,,,,,0,,,,,,,,,,,,,
9.061,-7.839,-3.084,3.715,-3.422,1.063,98513,2017-03-13 23:15:39:609,,,,,,,,,,,,,,0,,,,,,,,,,,,,
13.978,-6.126,-5.049,3.357,-2.344,-0.296,99013,2017-03-13 23:15:40:109,,,,,,,,,,,,,,0,,,,,,,,,,,,,
8.617,-8.289,-3.823,3.101,-2.563,2.371,99512,2017-03-13 23:15:40:608,,,,,,,,,,,,,,0,,,,,,,,,,,,,
13.924,-6.304,-5.03,4.356,-1.82,-2.049,100013,2017-03-13 23:15:41:109,,,,,,,,,,,,,,0,,,,,,,,,,,,,
11.085,-8.863,-2.85,9.213,3.38,0.373,100513,2017-03-13 23:15:41:609,,,,,,,,,,,,,,0,,,,,,,,,,,,,
12.699,-6.612,-4.738,-2.137,-6.402,0.971,101013,2017-03-13 23:15:42:109,,,,,,,,,,,,,,0,,,,,,,,,,,,,
12.096,-6.899,-2.106,6.385,2.686,1.229,101513,2017-03-13 23:15:42:609,,,,,,,,,,,,,,0,,,,,,,,,,,,,
7.687,-8.315,-3.868,-5.235,-5.503,-3.126,102012,2017-03-13 23:15:43:108,,,,,,,,,,,,,,0,,,,,,,,,,,,,
13.699,-5.821,-1.26,10.848,7.622,3.255,102512,2017-03-13 23:15:43:608,,,,,,,,,,,,,,0,,,,,,,,,,,,,
4.959,-8.394,-8.097,-2.322,-9.204,1.917,103013,2017-03-13 23:15:44:109,,,,,,,,,,,,,,1,,,,,,,,,,,,,
13.082,-4.234,-3.64,12.625,6.798,4.893,103513,2017-03-13 23:15:44:609,,,,,,,,,,,,,,0,,,,,,,,,,,,,
6.101,-9.284,-6.568,-5.036,-12.71,6.302,104012,2017-03-13 23:15:45:108,,,,,,,,,,,,,,0,,,,,,,,,,,,,
18.844,-0.163,-3.482,8.628,1.833,3.53,104512,2017-03-13 23:15:45:608,,,,,,,,,,,,,,0,,,,,,,,,,,,,
4.122,-9.94,-1.685,-2.856,-9.099,-0.497,105013,2017-03-13 23:15:46:109,,,,,,,,,,,,,,1,,,,,,,,,,,,,
16.667,-0.904,-1.542,10.158,2.773,1.274,105513,2017-03-13 23:15:46:609,,,,,,,,,,,,,,0,,,,,,,,,,,,,
5.535,-8.132,-4.901,-3.002,-8.93,0.1,106012,2017-03-13 23:15:47:108,,,,,,,,,,,,,,0,,,,,,,,,,,,,
15.405,-0.632,-2.062,8.31,1.298,3.297,106513,2017-03-13 23:15:47:609,,,,,,,,,,,,,,0,,,,,,,,,,,,,
4.975,-8.96,-5.234,1.461,-4.388,2.284,107013,2017-03-13 23:15:48:109,,,,,,,,,,,,,,1,,,,,,,,,,,,,
14.32,-5.026,-2.106,4.887,0.613,-0.976,107513,2017-03-13 23:15:48:609,,,,,,,,,,,,,,0,,,,,,,,,,,,,
8.522,-6.663,-3.449,1.773,-3.358,2.14,108013,2017-03-13 23:15:49:109,,,,,,,,,,,,,,0,,,,,,,,,,,,,
13.81,-5.811,-5.922,-6.078,-6.954,-1.48,108512,2017-03-13 23:15:49:608,,,,,,,,,,,,,,0,,,,,,,,,,,,,
11.92,-7.705,-2.242,6.37,2.684,-0.512,109013,2017-03-13 23:15:50:109,,,,,,,,,,,,,,0,,,,,,,,,,,,,
11.373,-7.565,-3.832,-2.031,-5.598,-1.167,109512,2017-03-13 23:15:50:608,,,,,,,,,,,,,,0,,,,,,,,,,,,,
12.312,-8.696,-1.874,5.391,0.164,0.926,110013,2017-03-13 23:15:51:109,,,,,,,,,,,,,,0,,,,,,,,,,,,,
10.899,-7.534,-4.062,-5.834,-9.991,-2.772,110513,2017-03-13 23:15:51:609,,,,,,,,,,,,,,0,,,,,,,,,,,,,
12.927,-5.918,-1.193,12.888,7.532,4.355,111013,2017-03-13 23:15:52:109,,,,,,,,,,,,,,0,,,,,,,,,,,,,
3.927,-8.611,-2.983,-5.407,-11.276,1.074,111514,2017-03-13 23:15:52:610,,,,,,,,,,,,,,1,,,,,,,,,,,,,
16.91,-0.18,-6.451,14.051,8.373,0.963,112012,2017-03-13 23:15:53:108,,,,,,,,,,,,,,0,,,,,,,,,,,,,
4.264,-10.581,-3.599,0.409,-8.207,-0.065,112512,2017-03-13 23:15:53:608,,,,,,,,,,,,,,1,,,,,,,,,,,,,
17.86,-0.425,-3.783,9.179,1.86,2.724,113014,2017-03-13 23:15:54:110,,,,,,,,,,,,,,0,,,,,,,,,,,,,
6.078,-10.537,-1.974,-1.039,-7.229,1.201,113513,2017-03-13 23:15:54:609,,,,,,,,,,,,,,0,,,,,,,,,,,,,
14.112,-4.243,-2.916,7.883,2.319,2.208,114012,2017-03-13 23:15:55:108,,,,,,,,,,,,,,0,,,,,,,,,,,,,
9.542,-7.797,-3.37,3.962,-2.759,1.036,114512,2017-03-13 23:15:55:608,,,,,,,,,,,,,,0,,,,,,,,,,,,,
13.006,-6.1,-4.03,1.099,-1.586,-3.624,115012,2017-03-13 23:15:56:108,,,,,,,,,,,,,,0,,,,,,,,,,,,,
8.154,-6.329,-2.51,2.008,-1.797,1.114,115513,2017-03-13 23:15:56:609,,,,,,,,,,,,,,0,,,,,,,,,,,,,
10.481,-7.176,-6.651,-0.333,-2.372,-5.455,116013,2017-03-13 23:15:57:109,,,,,,,,,,,,,,0,,,,,,,,,,,,,
11.944,-6.778,-1.432,11.886,6.693,-0.775,116512,2017-03-13 23:15:57:608,,,,,,,,,,,,,,0,,,,,,,,,,,,,
10.966,-6.387,-3.311,-5.598,-8.902,2.216,117013,2017-03-13 23:15:58:109,,,,,,,,,,,,,,0,,,,,,,,,,,,,
12.054,-7.699,-2.12,11.264,6.202,-0.932,117513,2017-03-13 23:15:58:609,,,,,,,,,,,,,,0,,,,,,,,,,,,,
8.032,-7.626,-6.12,-6.339,-9.174,0.235,118012,2017-03-13 23:15:59:108,,,,,,,,,,,,,,0,,,,,,,,,,,,,
14.352,-2.862,-3.533,9.544,4.042,3.4,118513,2017-03-13 23:15:59:609,,,,,,,,,,,,,,0,,,,,,,,,,,,,
3.954,-9.475,-1.188,-3.885,-8.974,-1.569,119012,2017-03-13 23:16:00:108,,,,,,,,,,,,,,1,,,,,,,,,,,,,
14.387,-1.219,-4.737,10.286,5.39,1.086,119513,2017-03-13 23:16:00:609,,,,,,,,,,,,,,0,,,,,,,,,,,,,
5.1,-8.205,-3.988,-4.133,-7.442,0.048,120013,2017-03-13 23:16:01:109,,,,,,,,,,,,,,0,,,,,,,,,,,,,
12.676,-3.688,-1.798,7.333,3.934,2.114,120512,2017-03-13 23:16:01:608,,,,,,,,,,,,,,0,,,,,,,,,,,,,
6.726,-8.756,-4.977,2.546,-5.344,-0.359,121012,2017-03-13 23:16:02:108,,,,,,,,,,,,,,0,,,,,,,,,,,,,
12.869,-5.501,-5.031,4.01,-1.435,-0.475,121512,2017-03-13 23:16:02:608,,,,,,,,,,,,,,0,,,,,,,,,,,,,
9.295,-8.96,-1.747,2.541,-3.331,2.352,122013,2017-03-13 23:16:03:109,,,,,,,,,,,,,,0,,,,,,,,,,,,,
12.628,-5.732,-6.407,-7.006,-7.332,-1.837,122512,2017-03-13 23:16:03:608,,,,,,,,,,,,,,0,,,,,,,,,,,,,
10.657,-7.968,-1.959,8.197,3.077,0.84,123012,2017-03-13 23:16:04:108,,,,,,,,,,,,,,0,,,,,,,,,,,,,
8.7,-7.791,-8.05,-3.326,-6.253,1.083,123513,2017-03-13 23:16:04:609,,,,,,,,,,,,,,0,,,,,,,,,,,,,
14.819,-3.873,-5.193,9.723,4.74,-1.891,124013,2017-03-13 23:16:05:109,,,,,,,,,,,,,,0,,,,,,,,,,,,,
3.074,-10.127,-2.218,-3.901,-9.412,-0.1,124513,2017-03-13 23:16:05:609,,,,,,,,,,,,,,1,,,,,,,,,,,,,
17.493,0.909,-7.335,11.842,6.437,0.815,125015,2017-03-13 23:16:06:111,,,,,,,,,,,,,,0,,,,,,,,,,,,,
6.901,-9.688,0.049,-7.143,-9.005,-2.827,125513,2017-03-13 23:16:06:609,,,,,,,,,,,,,,0,,,,,,,,,,,,,
14.649,-3.116,-2.309,8.004,3.824,3.106,126012,2017-03-13 23:16:07:108,,,,,,,,,,,,,,0,,,,,,,,,,,,,
6.524,-8.008,-2.954,-3.532,-7.864,-0.798,126513,2017-03-13 23:16:07:609,,,,,,,,,,,,,,0,,,,,,,,,,,,,
11.561,-4.963,-4.966,4.544,0.927,-1.372,127012,2017-03-13 23:16:08:108,,,,,,,,,,,,,,0,,,,,,,,,,,,,
9.208,-7.204,-2.49,2.111,-3.16,1.78,127512,2017-03-13 23:16:08:608,,,,,,,,,,,,,,0,,,,,,,,,,,,,
11.854,-5.751,-4.024,2.533,-0.515,-3.07,128012,2017-03-13 23:16:09:108,,,,,,,,,,,,,,0,,,,,,,,,,,,,
10.452,-7.127,-1.565,2.971,-2.633,2.22,128513,2017-03-13 23:16:09:609,,,,,,,,,,,,,,0,,,,,,,,,,,,,
11.573,-5.445,-7.657,-4.741,-7.69,1.702,129012,2017-03-13 23:16:10:108,,,,,,,,,,,,,,0,,,,,,,,,,,,,
12.174,-7.077,-3.25,12.623,6.341,0.535,129512,2017-03-13 23:16:10:608,,,,,,,,,,,,,,0,,,,,,,,,,,,,
5.54,-8.829,0.699,-6.395,-9.131,2.761,130013,2017-03-13 23:16:11:109,,,,,,,,,,,,,,0,,,,,,,,,,,,,
13.265,-4.778,-4.496,9.51,2.637,3.606,130513,2017-03-13 23:16:11:609,,,,,,,,,,,,,,0,,,,,,,,,,,,,
0.869,-11.007,-1.77,-2.234,-6.849,3.46,131013,2017-03-13 23:16:12:109,,,,,,,,,,,,,,1,,,,,,,,,,,,,
17.72,-4.508,-1.029,6.28,1.928,1.09,131513,2017-03-13 23:16:12:609,,,,,,,,,,,,,,0,,,,,,,,,,,,,
4.984,-8.835,-4.597,-3.168,-7.194,0.186,132013,2017-03-13 23:16:13:109,,,,,,,,,,,,,,1,,,,,,,,,,,,,
10.209,-7.169,-4.001,3.684,0.231,1.216,132512,2017-03-13 23:16:13:608,,,,,,,,,,,,,,0,,,,,,,,,,,,,
7.006,-6.65,-2.644,2.403,-2.209,1.647,133013,2017-03-13 23:16:14:109,,,,,,,,,,,,,,0,,,,,,,,,,,,,
9.862,-6.825,-4.311,-1.897,-2.153,-2.165,133512,2017-03-13 23:16:14:608,,,,,,,,,,,,,,0,,,,,,,,,,,,,
11.287,-9.124,-2.539,4.267,-1.765,0.562,134013,2017-03-13 23:16:15:109,,,,,,,,,,,,,,0,,,,,,,,,,,,,
11.943,-7.621,-4.259,-1.262,-4.578,-2.844,134513,2017-03-13 23:16:15:609,,,,,,,,,,,,,,0,,,,,,,,,,,,,
11.931,-8.918,-2.834,13.581,6.195,2.974,135012,2017-03-13 23:16:16:108,,,,,,,,,,,,,,0,,,,,,,,,,,,,
3.75,-9.3,-0.841,-4.003,-10.271,-0.031,135513,2017-03-13 23:16:16:609,,,,,,,,,,,,,,1,,,,,,,,,,,,,
20.215,-0.695,-2.344,12.879,6.761,1.195,136013,2017-03-13 23:16:17:109,,,,,,,,,,,,,,0,,,,,,,,,,,,,
6.037,-9.654,2.338,-2.819,-6.179,0.925,136514,2017-03-13 23:16:17:610,,,,,,,,,,,,,,0,,,,,,,,,,,,,
16.361,-3.855,2.118,5.15,0.891,0.818,137013,2017-03-13 23:16:18:109,,,,,,,,,,,,,,0,,,,,,,,,,,,,
8.842,-9.295,-1.886,-3.973,-3.681,1.551,137513,2017-03-13 23:16:18:609,,,,,,,,,,,,,,0,,,,,,,,,,,,,
12.828,-6.967,-0.296,5.583,-0.172,2.17,138012,2017-03-13 23:16:19:108,,,,,,,,,,,,,,0,,,,,,,,,,,,,
9.685,-8.122,-2.024,4.16,-1.936,2.129,138513,2017-03-13 23:16:19:609,,,,,,,,,,,,,,0,,,,,,,,,,,,,
12.475,-6.283,-3.309,-0.11,-3.456,-2.982,139013,2017-03-13 23:16:20:109,,,,,,,,,,,,,,0,,,,,,,,,,,,,
7.753,-7.711,-1.829,4.905,-1.167,2.513,139513,2017-03-13 23:16:20:609,,,,,,,,,,,,,,0,,,,,,,,,,,,,
11.674,-8.209,-1.929,-1.086,-4.27,-3.047,140014,2017-03-13 23:16:21:110,,,,,,,,,,,,,,0,,,,,,,,,,,,,
12.932,-9.648,-1.304,5.751,-2.19,1.854,140513,2017-03-13 23:16:21:609,,,,,,,,,,,,,,0,,,,,,,,,,,,,
4.606,-9.037,-6.879,-6.012,-11.416,4.257,141013,2017-03-13 23:16:22:109,,,,,,,,,,,,,,1,,,,,,,,,,,,,
11.794,-6.835,-0.884,13.134,6.876,2.096,141513,2017-03-13 23:16:22:609,,,,,,,,,,,,,,0,,,,,,,,,,,,,
3.877,-9.185,-0.59,-4.667,-8.234,-0.397,142013,2017-03-13 23:16:23:109,,,,,,,,,,,,,,1,,,,,,,,,,,,,
14.417,-3.274,-2.386,9.115,4.898,4.346,142513,2017-03-13 23:16:23:609,,,,,,,,,,,,,,0,,,,,,,,,,,,,
7.809,-9.818,-2.414,-0.968,-6.419,1.714,143013,2017-03-13 23:16:24:109,,,,,,,,,,,,,,0,,,,,,,,,,,,,
17.624,-1.468,-2.314,5.889,0.404,1.245,143513,2017-03-13 23:16:24:609,,,,,,,,,,,,,,0,,,,,,,,,,,,,
5.703,-8.278,-2.248,-0.992,-5.903,3.456,144013,2017-03-13 23:16:25:109,,,,,,,,,,,,,,0,,,,,,,,,,,,,
12.456,-6.9,-0.753,2.138,-2.964,-5.17,144513,2017-03-13 23:16:25:609,,,,,,,,,,,,,,0,,,,,,,,,,,,,
7.333,-7.934,-1.709,3.721,-2.86,3.21,145013,2017-03-13 23:16:26:109,,,,,,,,,,,,,,0,,,,,,,,,,,,,
12.291,-7.462,-2.517,-1.357,-3.761,-4.261,145514,2017-03-13 23:16:26:610,,,,,,,,,,,,,,0,,,,,,,,,,,,,
8.051,-7.528,-1.509,3.955,-0.876,1.909,146013,2017-03-13 23:16:27:109,,,,,,,,,,,,,,0,,,,,,,,,,,,,
3.207,-8.497,-8.83,-3.194,-9.326,2.678,146512,2017-03-13 23:16:27:608,,,,,,,,,,,,,,1,,,,,,,,,,,,,
11.639,-6.96,-1.106,12.907,5.773,2.315,147013,2017-03-13 23:16:28:109,,,,,,,,,,,,,,0,,,,,,,,,,,,,
5.242,-8.65,-10.147,-3.627,-9.187,8.402,147513,2017-03-13 23:16:28:609,,,,,,,,,,,,,,0,,,,,,,,,,,,,
17.615,-2.8,-9.035,14.146,6.871,-2.894,148012,2017-03-13 23:16:29:108,,,,,,,,,,,,,,0,,,,,,,,,,,,,
4.826,-9.709,-0.053,-3.168,-8.763,3.242,148513,2017-03-13 23:16:29:609,,,,,,,,,,,,,,1,,,,,,,,,,,,,
15.169,-2.94,-3.238,10.754,2.47,3.715,149012,2017-03-13 23:16:30:108,,,,,,,,,,,,,,0,,,,,,,,,,,,,
6.741,-10.865,-1.813,-3.51,-8.14,0.778,149512,2017-03-13 23:16:30:608,,,,,,,,,,,,,,0,,,,,,,,,,,,,
13.443,-3.531,-4.191,7.329,2.099,0.428,150012,2017-03-13 23:16:31:108,,,,,,,,,,,,,,0,,,,,,,,,,,,,
6.251,-9.933,-2.101,1.221,-3.073,1.977,150513,2017-03-13 23:16:31:609,,,,,,,,,,,,,,0,,,,,,,,,,,,,
11.421,-5.019,-3.098,3.242,0.208,-1.654,151013,2017-03-13 23:16:32:109,,,,,,,,,,,,,,0,,,,,,,,,,,,,
5.995,-8.163,-3.47,1.507,-3.886,2.151,151513,2017-03-13 23:16:32:609,,,,,,,,,,,,,,0,,,,,,,,,,,,,
13.875,-7.431,-1.887,3.288,-2.77,-2.917,152013,2017-03-13 23:16:33:109,,,,,,,,,,,,,,0,,,,,,,,,,,,,
10.771,-9.129,-1.411,6.452,0.656,1.771,152513,2017-03-13 23:16:33:609,,,,,,,,,,,,,,0,,,,,,,,,,,,,
11.774,-6.316,-5.344,-0.421,-5.172,0.652,153013,2017-03-13 23:16:34:109,,,,,,,,,,,,,,0,,,,,,,,,,,,,
7.555,-8.315,0.013,4.992,-1.435,0.838,153512,2017-03-13 23:16:34:608,,,,,,,,,,,,,,0,,,,,,,,,,,,,
11.519,-8.079,-4.141,-3.027,-5.971,0.709,154013,2017-03-13 23:16:35:109,,,,,,,,,,,,,,0,,,,,,,,,,,,,
12.121,-8.022,-1.709,6.577,2.027,0.526,154513,2017-03-13 23:16:35:609,,,,,,,,,,,,,,0,,,,,,,,,,,,,
5.087,-10.021,-6.902,-2.075,-10.988,4.15,155012,2017-03-13 23:16:36:108,,,,,,,,,,,,,,0,,,,,,,,,,,,,
16.659,-2.329,-6.468,11.893,5.659,0.952,155512,2017-03-13 23:16:36:608,,,,,,,,,,,,,,0,,,,,,,,,,,,,
0.83,-11.297,-2.519,-8.371,-10.813,1.976,156014,2017-03-13 23:16:37:110,,,,,,,,,,,,,,1,,,,,,,,,,,,,
18.499,-3.179,-2.257,10.105,4.787,1.812,156513,2017-03-13 23:16:37:609,,,,,,,,,,,,,,0,,,,,,,,,,,,,
5.674,-11.175,3.49,-2.755,-5.856,0.643,157012,2017-03-13 23:16:38:108,,,,,,,,,,,,,,0,,,,,,,,,,,,,
13.035,-4.498,2.049,6.272,1.806,2.307,157513,2017-03-13 23:16:38:609,,,,,,,,,,,,,,0,,,,,,,,,,,,,
5.884,-8.227,-3.27,-3.803,-6.531,0.283,158013,2017-03-13 23:16:39:109,,,,,,,,,,,,,,0,,,,,,,,,,,,,
10.112,-5.795,3.6,0.013,-2.063,1.31,158521,2017-03-13 23:16:39:617,,,,,,,,,,,,,,0,,,,,,,,,,,,,
7.421,-6.862,0.195,0.371,-2.548,1.594,159013,2017-03-13 23:16:40:109,,,,,,,,,,,,,,0,,,,,,,,,,,,,
9.217,-5.184,-0.737,-1.837,-2.613,-0.061,159513,2017-03-13 23:16:40:609,,,,,,,,,,,,,,0,,,,,,,,,,,,,
7.212,-5.803,-0.39,1.148,0.562,2.655,160013,2017-03-13 23:16:41:109,,,,,,,,,,,,,,0,,,,,,,,,,,,,
6.196,-3.275,-0.215,-3.421,-1.714,-3.242,160513,2017-03-13 23:16:41:609,,,,,,,,,,,,,,0,,,,,,,,,,,,,
7.264,-3.302,0.41,5.861,-0.324,6.958,161013,2017-03-13 23:16:42:109,,,,,,,,,,,,,,0,,,,,,,,,,,,,
9.35,-5.007,2.377,-0.855,-2.865,-3,161512,2017-03-13 23:16:42:608,,,,,,,,,,,,,,0,,,,,,,,,,,,,
8.483,-6.51,0.533,0.938,-2.75,3.389,162012,2017-03-13 23:16:43:108,,,,,,,,,,,,,,0,,,,,,,,,,,,,
12.792,-8.287,0.941,4.577,-1.958,3.668,162512,2017-03-13 23:16:43:608,,,,,,,,,,,,,,0,,,,,,,,,,,,,
13.609,-9.637,-1.7,-5.88,-5.701,-4.547,163013,2017-03-13 23:16:44:109,,,,,,,,,,,,,,0,,,,,,,,,,,,,
17.324,-6.611,1.15,10.142,4.684,3.091,163512,2017-03-13 23:16:44:608,,,,,,,,,,,,,,0,,,,,,,,,,,,,
6.756,-9.696,-1.383,-5.019,-6.453,-3.001,164013,2017-03-13 23:16:45:109,,,,,,,,,,,,,,0,,,,,,,,,,,,,
12.085,-7.48,-0.768,4.681,1.904,1.835,164513,2017-03-13 23:16:45:609,,,,,,,,,,,,,,0,,,,,,,,,,,,,
10.74,-8.288,-2.782,1.104,-2.122,0.346,165012,2017-03-13 23:16:46:108,,,,,,,,,,,,,,0,,,,,,,,,,,,,
6.944,-8.836,-3.909,-5.203,-1.953,-0.694,165512,2017-03-13 23:16:46:608,,,,,,,,,,,,,,0,,,,,,,,,,,,,
8.544,-3.797,-1.45,4.635,5.216,2.797,166013,2017-03-13 23:16:47:109,,,,,,,,,,,,,,0,,,,,,,,,,,,,
2.861,-5.729,-2.119,-1.897,-7.297,1.646,166513,2017-03-13 23:16:47:609,,,,,,,,,,,,,,1,,,,,,,,,,,,,
12.311,-6.39,-1.701,5.62,-1.761,-0.275,167012,2017-03-13 23:16:48:108,,,,,,,,,,,,,,0,,,,,,,,,,,,,
8.231,-9.257,-2.022,2.898,-4.901,1.85,167512,2017-03-13 23:16:48:608,,,,,,,,,,,,,,0,,,,,,,,,,,,,
6.428,-9.252,-4.926,-7.097,-7.583,3.275,168013,2017-03-13 23:16:49:109,,,,,,,,,,,,,,0,,,,,,,,,,,,,
10.903,-9.389,-1.791,14.127,5.744,-1.1,168513,2017-03-13 23:16:49:609,,,,,,,,,,,,,,0,,,,,,,,,,,,,
5.103,-9.441,-9.159,-7.284,-8.757,4.754,169013,2017-03-13 23:16:50:109,,,,,,,,,,,,,,0,,,,,,,,,,,,,
14.017,-4.553,-2.063,13.775,4.805,3.502,169513,2017-03-13 23:16:50:609,,,,,,,,,,,,,,0,,,,,,,,,,,,,
0.403,-10.589,3.723,-0.687,-6.112,1.718,170012,2017-03-13 23:16:51:108,,,,,,,,,,,,,,1,,,,,,,,,,,,,
16.434,-4.081,-2.843,6.126,0.378,2.711,170513,2017-03-13 23:16:51:609,,,,,,,,,,,,,,0,,,,,,,,,,,,,
9.522,-9.316,-5.033,-0.906,-4.719,0.047,171012,2017-03-13 23:16:52:108,,,,,,,,,,,,,,0,,,,,,,,,,,,,
12.838,-5.845,-2.095,5.696,0.958,1.354,171513,2017-03-13 23:16:52:609,,,,,,,,,,,,,,0,,,,,,,,,,,,,
4.807,-6.894,-3.61,2.37,-4.327,3.664,172012,2017-03-13 23:16:53:108,,,,,,,,,,,,,,1,,,,,,,,,,,,,
10.587,-6.363,-4.301,-0.061,-2.041,-1.439,172513,2017-03-13 23:16:53:609,,,,,,,,,,,,,,0,,,,,,,,,,,,,
10.005,-11.74,0.623,3.459,-5.019,3.266,173013,2017-03-13 23:16:54:109,,,,,,,,,,,,,,0,,,,,,,,,,,,,
10.111,-5.828,-4.165,3.981,-1.896,1.176,173513,2017-03-13 23:16:54:609,,,,,,,,,,,,,,0,,,,,,,,,,,,,
15.538,-4.934,1.737,8.659,3.088,4.697,174012,2017-03-13 23:16:55:108,,,,,,,,,,,,,,0,,,,,,,,,,,,,
5.904,-11.83,0.293,-3.304,-7.901,0.999,174512,2017-03-13 23:16:55:608,,,,,,,,,,,,,,0,,,,,,,,,,,,,
17.329,-2.642,-0.038,9.108,-0.288,5.52,175014,2017-03-13 23:16:56:110,,,,,,,,,,,,,,0,,,,,,,,,,,,,
5.689,-9.954,-0.992,-1.87,-8.037,1.905,175513,2017-03-13 23:16:56:609,,,,,,,,,,,,,,0,,,,,,,,,,,,,
14.276,-8.704,-2.168,3.203,-2.94,1.881,176012,2017-03-13 23:16:57:108,,,,,,,,,,,,,,0,,,,,,,,,,,,,
8.991,-9.868,-1.752,3.118,-3.04,3.616,176513,2017-03-13 23:16:57:609,,,,,,,,,,,,,,0,,,,,,,,,,,,,
11.951,-9.233,-2.933,2.399,-2.627,-1.89,177012,2017-03-13 23:16:58:108,,,,,,,,,,,,,,0,,,,,,,,,,,,,
11.869,-11.29,-2.368,5.677,-3.413,2.558,177513,2017-03-13 23:16:58:609,,,,,,,,,,,,,,0,,,,,,,,,,,,,
9.257,-8.076,-5.298,-6.222,-8.585,-0.167,178013,2017-03-13 23:16:59:109,,,,,,,,,,,,,,0,,,,,,,,,,,,,
13.374,-6.242,-3.48,12.291,5.86,-1.066,178513,2017-03-13 23:16:59:609,,,,,,,,,,,,,,0,,,,,,,,,,,,,
5.068,-11.159,-0.889,-6.006,-9.188,1.819,179013,2017-03-13 23:17:00:109,,,,,,,,,,,,,,0,,,,,,,,,,,,,
15.147,-4.426,-3.023,10.335,3.371,2.174,179513,2017-03-13 23:17:00:609,,,,,,,,,,,,,,0,,,,,,,,,,,,,
9.15,-12.486,-0.249,-2.093,-6.275,1.575,180013,2017-03-13 23:17:01:109,,,,,,,,,,,,,,0,,,,,,,,,,,,,
12.747,-4.439,-4.183,5.984,1.456,0.315,180513,2017-03-13 23:17:01:609,,,,,,,,,,,,,,0,,,,,,,,,,,,,
6.262,-11.95,1.44,-1.075,-4.897,2.599,181012,2017-03-13 23:17:02:108,,,,,,,,,,,,,,0,,,,,,,,,,,,,
9.976,-6.678,-3.368,5.633,2.358,-0.188,181512,2017-03-13 23:17:02:608,,,,,,,,,,,,,,0,,,,,,,,,,,,,
6.783,-8.102,-1.841,3.328,-4.666,1.119,182013,2017-03-13 23:17:03:109,,,,,,,,,,,,,,0,,,,,,,,,,,,,
11.502,-7.309,-3.197,0.785,-2.837,-1.484,182513,2017-03-13 23:17:03:609,,,,,,,,,,,,,,0,,,,,,,,,,,,,
7.73,-8.254,-2.175,4.376,-0.976,2.421,183013,2017-03-13 23:17:04:109,,,,,,,,,,,,,,0,,,,,,,,,,,,,
7.908,-8.07,-5.439,-7.852,-6.458,2.001,183513,2017-03-13 23:17:04:609,,,,,,,,,,,,,,0,,,,,,,,,,,,,
10.64,-6.829,-2.182,13.256,5.847,0.951,184012,2017-03-13 23:17:05:108,,,,,,,,,,,,,,0,,,,,,,,,,,,,
2.802,-10.584,0.327,-3.766,-8.329,1.774,184514,2017-03-13 23:17:05:610,,,,,,,,,,,,,,1,,,,,,,,,,,,,
19.309,-2.698,-3.309,12.777,4.481,-0.257,185012,2017-03-13 23:17:06:108,,,,,,,,,,,,,,0,,,,,,,,,,,,,
4.799,-9.434,-3.179,-5.734,-8.032,0.626,185513,2017-03-13 23:17:06:609,,,,,,,,,,,,,,1,,,,,,,,,,,,,
16.058,-2.488,-2.607,5.911,-0.473,2.064,186012,2017-03-13 23:17:07:108,,,,,,,,,,,,,,0,,,,,,,,,,,,,
1.235,-9.665,-4.698,-0.437,-7.838,1.449,186512,2017-03-13 23:17:07:608,,,,,,,,,,,,,,1,,,,,,,,,,,,,
13.107,-7.983,-0.403,6.044,0.073,-0.701,187013,2017-03-13 23:17:08:109,,,,,,,,,,,,,,0,,,,,,,,,,,,,
7.414,-9.066,-2.065,-0.432,-5.181,2.845,187513,2017-03-13 23:17:08:609,,,,,,,,,,,,,,0,,,,,,,,,,,,,
11.005,-7.742,-3.646,-3.523,-4.405,-6.267,188013,2017-03-13 23:17:09:109,,,,,,,,,,,,,,0,,,,,,,,,,,,,
9.271,-8.619,-2.936,5.164,-0.59,1.858,188512,2017-03-13 23:17:09:608,,,,,,,,,,,,,,0,,,,,,,,,,,,,
11.354,-7.37,-1.325,-1.92,-3.553,-3.685,189013,2017-03-13 23:17:10:109,,,,,,,,,,,,,,0,,,,,,,,,,,,,
9.102,-8.437,-1.12,6.262,1.765,1.661,189512,2017-03-13 23:17:10:608,,,,,,,,,,,,,,0,,,,,,,,,,,,,
4.649,-8.983,-7.935,-0.973,-6.355,4.243,190013,2017-03-13 23:17:11:109,,,,,,,,,,,,,,1,,,,,,,,,,,,,
16.129,-4.172,-2.387,9.646,2.901,2.472,190513,2017-03-13 23:17:11:609,,,,,,,,,,,,,,0,,,,,,,,,,,,,
1.035,-11.866,-2.052,-5.031,-8.524,3.743,191013,2017-03-13 23:17:12:109,,,,,,,,,,,,,,1,,,,,,,,,,,,,
15.707,-4.961,-3.906,9.325,3.425,0.209,191513,2017-03-13 23:17:12:609,,,,,,,,,,,,,,0,,,,,,,,,,,,,
5.732,-8.905,-2.991,-2.713,-4.499,2.284,192013,2017-03-13 23:17:13:109,,,,,,,,,,,,,,0,,,,,,,,,,,,,
11.62,-6.957,-2.412,4.598,1.053,-0.708,192512,2017-03-13 23:17:13:608,,,,,,,,,,,,,,0,,,,,,,,,,,,,
9.034,-8.071,-1.654,0.498,-3.962,2.951,193012,2017-03-13 23:17:14:108,,,,,,,,,,,,,,0,,,,,,,,,,,,,
11.355,-7.442,-2.723,4.335,0.236,0.499,193513,2017-03-13 23:17:14:609,,,,,,,,,,,,,,0,,,,,,,,,,,,,
7.195,-8.027,-1.676,6.033,0.914,2.728,194012,2017-03-13 23:17:15:108,,,,,,,,,,,,,,0,,,,,,,,,,,,,
7.297,-8.451,-3.228,-6.198,-5.224,-4.159,194512,2017-03-13 23:17:15:608,,,,,,,,,,,,,,0,,,,,,,,,,,,,
10.87,-7.933,-2.586,9.105,4.213,0.789,195012,2017-03-13 23:17:16:108,,,,,,,,,,,,,,0,,,,,,,,,,,,,
5.301,-8.167,-4.64,-5.273,-5.991,5.218,195513,2017-03-13 23:17:16:609,,,,,,,,,,,,,,0,,,,,,,,,,,,,
17.189,-3.277,-7.983,7.533,3.56,-0.634,196012,2017-03-13 23:17:17:108,,,,,,,,,,,,,,0,,,,,,,,,,,,,
4.179,-11.02,-3.275,-5.119,-7.237,0.618,196512,2017-03-13 23:17:17:608,,,,,,,,,,,,,,1,,,,,,,,,,,,,
13.322,-5.138,-3.728,7.212,2.111,3.162,197013,2017-03-13 23:17:18:109,,,,,,,,,,,,,,0,,,,,,,,,,,,,
4.678,-8.418,-4.324,-3.584,-6.104,0.345,197512,2017-03-13 23:17:18:608,,,,,,,,,,,,,,1,,,,,,,,,,,,,
10.832,-6.838,-3.338,3.073,0.11,-1.201,198013,2017-03-13 23:17:19:109,,,,,,,,,,,,,,0,,,,,,,,,,,,,
6.411,-7.103,-1.159,-0.796,-3.336,3.006,198513,2017-03-13 23:17:19:609,,,,,,,,,,,,,,0,,,,,,,,,,,,,
11.475,-5.474,-2.802,2.449,-0.495,-0.917,199012,2017-03-13 23:17:20:108,,,,,,,,,,,,,,0,,,,,,,,,,,,,
6.702,-7.417,-2.241,0.983,-2.126,1.74,199512,2017-03-13 23:17:20:608,,,,,,,,,,,,,,0,,,,,,,,,,,,,
8.604,-5.612,-6.814,-4.703,-6.614,1.644,200013,2017-03-13 23:17:21:109,,,,,,,,,,,,,,0,,,,,,,,,,,,,
11.446,-9.287,-1.049,10.788,4.865,-1.509,200512,2017-03-13 23:17:21:608,,,,,,,,,,,,,,0,,,,,,,,,,,,,
7.657,-7.734,-2.347,-4.153,-7.351,4.104,201013,2017-03-13 23:17:22:109,,,,,,,,,,,,,,0,,,,,,,,,,,,,
11.618,-7.032,-1.204,11.839,4.145,-2.61,201513,2017-03-13 23:17:22:609,,,,,,,,,,,,,,0,,,,,,,,,,,,,
0.662,-10.084,-0.44,-5.364,-6.418,1.764,202013,2017-03-13 23:17:23:109,,,,,,,,,,,,,,1,,,,,,,,,,,,,
13.791,-6.267,-3.801,4.426,1.316,0.56,202513,2017-03-13 23:17:23:609,,,,,,,,,,,,,,0,,,,,,,,,,,,,
3.539,-11.241,-2.693,-4.395,-4.39,1.116,203012,2017-03-13 23:17:24:108,,,,,,,,,,,,,,1,,,,,,,,,,,,,
9.626,-8.926,-1.833,4.696,0.877,-0.185,203513,2017-03-13 23:17:24:609,,,,,,,,,,,,,,0,,,,,,,,,,,,,
5.562,-7.15,-2.569,0.576,-2.765,1.707,204013,2017-03-13 23:17:25:109,,,,,,,,,,,,,,0,,,,,,,,,,,,,
8.129,-7.677,-3.545,-0.419,-2.631,-0.271,204513,2017-03-13 23:17:25:609,,,,,,,,,,,,,,0,,,,,,,,,,,,,
7.06,-8.028,-0.523,2.296,-1.74,1.445,205013,2017-03-13 23:17:26:109,,,,,,,,,,,,,,0,,,,,,,,,,,,,
7.262,-8.463,-4.773,-4.491,-4.148,-1.396,205513,2017-03-13 23:17:26:609,,,,,,,,,,,,,,0,,,,,,,,,,,,,
10.98,-7.863,-4.128,10.489,3.595,-1.274,206013,2017-03-13 23:17:27:109,,,,,,,,,,,,,,0,,,,,,,,,,,,,
2.733,-10.634,2.065,-1.09,-8.387,3.84,206513,2017-03-13 23:17:27:609,,,,,,,,,,,,,,1,,,,,,,,,,,,,
17.291,-4.598,-4.68,7.917,3.98,-0.813,207013,2017-03-13 23:17:28:109,,,,,,,,,,,,,,0,,,,,,,,,,,,,
1.779,-12.033,2.113,-3.511,-7.898,0.441,207514,2017-03-13 23:17:28:610,,,,,,,,,,,,,,1,,,,,,,,,,,,,
15.637,-5.347,-2.83,3.597,-0.927,0.848,208013,2017-03-13 23:17:29:109,,,,,,,,,,,,,,0,,,,,,,,,,,,,
-3.431,-11.316,-9.67,-2.083,-3.821,2.761,208513,2017-03-13 23:17:29:609,,,,,,,,,,,,,,1,,,,,,,,,,,,,
10.743,-6.999,-5.475,2.087,0.003,0.207,209013,2017-03-13 23:17:30:109,,,,,,,,,,,,,,0,,,,,,,,,,,,,
7.076,-7.802,-2.783,-0.073,-4.888,2.511,209514,2017-03-13 23:17:30:610,,,,,,,,,,,,,,0,,,,,,,,,,,,,
8.952,-6.8,-4.397,-1.253,-5.247,2.822,210013,2017-03-13 23:17:31:109,,,,,,,,,,,,,,0,,,,,,,,,,,,,
8.845,-9.52,-2.44,10.303,3.264,1.497,210513,2017-03-13 23:17:31:609,,,,,,,,,,,,,,0,,,,,,,,,,,,,
6.424,-9.352,-6.454,-6.56,-8.21,6.395,211013,2017-03-13 23:17:32:109,,,,,,,,,,,,,,0,,,,,,,,,,,,,
17.31,-4.482,-6.209,14.129,4.487,-1.423,211512,2017-03-13 23:17:32:608,,,,,,,,,,,,,,0,,,,,,,,,,,,,
-0.512,-10.931,3.983,-3.516,-6.328,2.191,212013,2017-03-13 23:17:33:109,,,,,,,,,,,,,,1,,,,,,,,,,,,,
15.433,-3.925,-5.756,7.326,1.3,0.573,212513,2017-03-13 23:17:33:609,,,,,,,,,,,,,,0,,,,,,,,,,,,,
5.864,-9.447,-3.964,-3.442,-7.434,1.28,213012,2017-03-13 23:17:34:108,,,,,,,,,,,,,,0,,,,,,,,,,,,,
12.096,-6.22,-1.743,6.059,0.885,1.941,213513,2017-03-13 23:17:34:609,,,,,,,,,,,,,,0,,,,,,,,,,,,,
2.716,-8.739,-5.892,1.367,-5.26,3.19,214012,2017-03-13 23:17:35:108,,,,,,,,,,,,,,1,,,,,,,,,,,,,
9.814,-8.427,-2.601,1.835,-1.407,-1.819,214513,2017-03-13 23:17:35:609,,,,,,,,,,,,,,0,,,,,,,,,,,,,
5.337,-8.077,-3.305,3.144,-3.253,3.337,215013,2017-03-13 23:17:36:109,,,,,,,,,,,,,,0,,,,,,,,,,,,,
10.292,-6.764,-5.282,1.238,-3.129,1.832,215513,2017-03-13 23:17:36:609,,,,,,,,,,,,,,0,,,,,,,,,,,,,
9.616,-9.155,-2.243,11.293,5.022,0.27,216013,2017-03-13 23:17:37:109,,,,,,,,,,,,,,0,,,,,,,,,,,,,
5.731,-9.953,-3.842,-6.654,-8.294,2.292,216513,2017-03-13 23:17:37:609,,,,,,,,,,,,,,0,,,,,,,,,,,,,
15.892,-5.274,-4.469,10.656,4.124,-0.978,217012,2017-03-13 23:17:38:108,,,,,,,,,,,,,,0,,,,,,,,,,,,,
5.027,-9.614,-3.112,-3.581,-8.616,2.878,217512,2017-03-13 23:17:38:608,,,,,,,,,,,,,,0,,,,,,,,,,,,,
15.892,-4.964,-4.73,5.252,0.578,0.855,218013,2017-03-13 23:17:39:109,,,,,,,,,,,,,,0,,,,,,,,,,,,,
6.836,-9.43,-3.884,-2.07,-4.916,3.192,218512,2017-03-13 23:17:39:608,,,,,,,,,,,,,,0,,,,,,,,,,,,,
12.382,-7.281,-2.093,4.594,0.123,-1.35,219013,2017-03-13 23:17:40:109,,,,,,,,,,,,,,0,,,,,,,,,,,,,
5.486,-7.717,-3.244,-2.921,-3.87,2.737,219512,2017-03-13 23:17:40:608,,,,,,,,,,,,,,0,,,,,,,,,,,,,
9.877,-7.075,-3.503,-0.491,-3.649,-1.522,220013,2017-03-13 23:17:41:109,,,,,,,,,,,,,,0,,,,,,,,,,,,,
6.658,-8.512,-0.567,3.383,-2.706,1.966,220513,2017-03-13 23:17:41:609,,,,,,,,,,,,,,0,,,,,,,,,,,,,
7.2,-9.176,-2.012,-0.663,-2.859,-3.676,221013,2017-03-13 23:17:42:109,,,,,,,,,,,,,,0,,,,,,,,,,,,,
8.972,-10.479,-0.261,6.33,0.366,-0.708,221513,2017-03-13 23:17:42:609,,,,,,,,,,,,,,0,,,,,,,,,,,,,
6.972,-9.38,-8.408,-3.82,-11.439,6.075,222013,2017-03-13 23:17:43:109,,,,,,,,,,,,,,0,,,,,,,,,,,,,
14.504,-5.83,-6.772,9.387,5.007,-2.304,222513,2017-03-13 23:17:43:609,,,,,,,,,,,,,,0,,,,,,,,,,,,,
2.409,-10.646,-0.818,-2.478,-8.189,3.7,223013,2017-03-13 23:17:44:109,,,,,,,,,,,,,,1,,,,,,,,,,,,,
12.555,-5.876,-3.293,8.32,2.375,0.968,223512,2017-03-13 23:17:44:608,,,,,,,,,,,,,,0,,,,,,,,,,,,,
5.2,-10.76,-1.603,-1.77,-4.228,1.47,224013,2017-03-13 23:17:45:109,,,,,,,,,,,,,,0,,,,,,,,,,,,,
13.996,-4.534,-3.736,3.692,0.657,-2.585,224513,2017-03-13 23:17:45:609,,,,,,,,,,,,,,0,,,,,,,,,,,,,
1.742,-9.366,-4.135,-2.494,-6.398,1.935,225012,2017-03-13 23:17:46:108,,,,,,,,,,,,,,1,,,,,,,,,,,,,
8.647,-9.128,-4.682,3.071,0.046,-1.089,225513,2017-03-13 23:17:46:609,,,,,,,,,,,,,,0,,,,,,,,,,,,,
8.219,-8.865,-3.028,5.456,0.119,0.217,226013,2017-03-13 23:17:47:109,,,,,,,,,,,,,,0,,,,,,,,,,,,,
6.827,-8.764,-3.447,-3.975,-5.602,-1.946,226513,2017-03-13 23:17:47:609,,,,,,,,,,,,,,0,,,,,,,,,,,,,
9.555,-8.686,-2.848,8.245,3.043,-0.574,227013,2017-03-13 23:17:48:109,,,,,,,,,,,,,,0,,,,,,,,,,,,,
2.72,-9.781,-4.166,-6.352,-6.405,4.23,227513,2017-03-13 23:17:48:609,,,,,,,,,,,,,,1,,,,,,,,,,,,,
17.392,-4.657,-6.818,8.393,3.009,-1.715,228013,2017-03-13 23:17:49:109,,,,,,,,,,,,,,0,,,,,,,,,,,,,
3.096,-12.736,1.391,-3.817,-7.571,2.02,228512,2017-03-13 23:17:49:608,,,,,,,,,,,,,,1,,,,,,,,,,,,,
16.097,-4.72,-7.07,8.124,2.686,-1.656,229013,2017-03-13 23:17:50:109,,,,,,,,,,,,,,0,,,,,,,,,,,,,
5.266,-11.996,2.193,-3.96,-7.659,1.57,229512,2017-03-13 23:17:50:608,,,,,,,,,,,,,,0,,,,,,,,,,,,,
13.121,-5.239,-4.994,4.779,-1.112,-2.268,230012,2017-03-13 23:17:51:108,,,,,,,,,,,,,,0,,,,,,,,,,,,,
-1.063,-9.125,-2.874,0.865,-6.185,2.563,230513,2017-03-13 23:17:51:609,,,,,,,,,,,,,,1,,,,,,,,,,,,,
9.514,-7.581,-4.884,2.643,-1.029,-0.152,231013,2017-03-13 23:17:52:109,,,,,,,,,,,,,,0,,,,,,,,,,,,,
5.53,-8.134,-2.335,0.521,-3.144,1.991,231513,2017-03-13 23:17:52:609,,,,,,,,,,,,,,0,,,,,,,,,,,,,
8.418,-9.305,-3.149,-9.427,-6.888,3.445,232013,2017-03-13 23:17:53:109,,,,,,,,,,,,,,0,,,,,,,,,,,,,
9.427,-9.976,-1.887,12.727,4.822,-2.382,232513,2017-03-13 23:17:53:609,,,,,,,,,,,,,,0,,,,,,,,,,,,,
1.181,-10.786,-2.162,-9.099,-8.66,4.286,233013,2017-03-13 23:17:54:109,,,,,,,,,,,,,,1,,,,,,,,,,,,,
15.872,-6.079,-6.117,12.514,4.226,-6.286,233513,2017-03-13 23:17:54:609,,,,,,,,,,,,,,0,,,,,,,,,,,,,
-1.671,-11.646,0.711,-3.645,-7.063,2.517,234013,2017-03-13 23:17:55:109,,,,,,,,,,,,,,1,,,,,,,,,,,,,
11.91,-5.664,-6.914,7.017,1.174,-1.425,234513,2017-03-13 23:17:55:609,,,,,,,,,,,,,,0,,,,,,,,,,,,,
2.045,-10.93,-1.861,-3.866,-6.806,2.789,235013,2017-03-13 23:17:56:109,,,,,,,,,,,,,,1,,,,,,,,,,,,,
9.975,-9.654,-2.546,4.399,-0.557,-0.612,235512,2017-03-13 23:17:56:608,,,,,,,,,,,,,,0,,,,,,,,,,,,,
6.308,-9.716,-2.85,3.876,-1.963,0.436,236013,2017-03-13 23:17:57:109,,,,,,,,,,,,,,0,,,,,,,,,,,,,
9.256,-9.095,-4.667,-3.302,-4.77,-0.711,236513,2017-03-13 23:17:57:609,,,,,,,,,,,,,,0,,,,,,,,,,,,,
9.35,-11.283,-2.906,5.575,-0.196,-0.175,237013,2017-03-13 23:17:58:109,,,,,,,,,,,,,,0,,,,,,,,,,,,,
1.709,-13.004,-3.147,-6.196,-7.232,1.649,237513,2017-03-13 23:17:58:609,,,,,,,,,,,,,,1,,,,,,,,,,,,,
15.315,-9.707,-3.77,12.458,5.988,-4.389,238012,2017-03-13 23:17:59:108,,,,,,,,,,,,,,0,,,,,,,,,,,,,
6.472,-10.243,-5.98,-6.21,-8.166,3.258,238513,2017-03-13 23:17:59:609,,,,,,,,,,,,,,0,,,,,,,,,,,,,
17.077,-5.15,-5.145,11.587,4.045,-1.762,239012,2017-03-13 23:18:00:108,,,,,,,,,,,,,,0,,,,,,,,,,,,,
3.271,-11.451,0.78,-5.393,-8.624,3.397,239513,2017-03-13 23:18:00:609,,,,,,,,,,,,,,1,,,,,,,,,,,,,
15.443,-4.48,-5.309,4.126,-0.884,-1.672,240013,2017-03-13 23:18:01:109,,,,,,,,,,,,,,0,,,,,,,,,,,,,
3.028,-10.988,-2.044,-0.599,-5.437,2.325,240513,2017-03-13 23:18:01:609,,,,,,,,,,,,,,1,,,,,,,,,,,,,
10.398,-8.952,-2.021,5.628,-1.412,-0.668,241013,2017-03-13 23:18:02:109,,,,,,,,,,,,,,0,,,,,,,,,,,,,
4.38,-10.437,-3.637,-1.622,-6.372,3.627,241513,2017-03-13 23:18:02:609,,,,,,,,,,,,,,1,,,,,,,,,,,,,
9.577,-11.876,-2.224,-2.632,-6.254,-0.824,242012,2017-03-13 23:18:03:108,,,,,,,,,,,,,,0,,,,,,,,,,,,,
8.418,-10.969,-3.013,6.521,-1.149,0.048,242512,2017-03-13 23:18:03:608,,,,,,,,,,,,,,0,,,,,,,,,,,,,
7.898,-13.157,-1.607,-8.039,-6.781,-3.721,243013,2017-03-13 23:18:04:109,,,,,,,,,,,,,,0,,,,,,,,,,,,,
9.643,-10.331,-3.288,10.185,1.827,-1.065,243513,2017-03-13 23:18:04:609,,,,,,,,,,,,,,0,,,,,,,,,,,,,
2.962,-10.901,-6.304,-4.403,-8.206,3.095,244013,2017-03-13 23:18:05:109,,,,,,,,,,,,,,1,,,,,,,,,,,,,
14.552,-6.804,-7.187,10.694,1.567,0.021,244513,2017-03-13 23:18:05:609,,,,,,,,,,,,,,0,,,,,,,,,,,,,
0.677,-12.005,0.624,-6.972,-8.084,2.179,245013,2017-03-13 23:18:06:109,,,,,,,,,,,,,,1,,,,,,,,,,,,,
16.287,-5.566,-6.826,8.205,1.13,-0.333,245512,2017-03-13 23:18:06:608,,,,,,,,,,,,,,0,,,,,,,,,,,,,
3.64,-10.372,-0.704,-1.627,-9.575,2.221,246013,2017-03-13 23:18:07:109,,,,,,,,,,,,,,1,,,,,,,,,,,,,
13.2,-7.175,-1.693,7.095,-3.182,-1.014,246513,2017-03-13 23:18:07:609,,,,,,,,,,,,,,0,,,,,,,,,,,,,
4.941,-10.159,-2.582,2.334,-8.065,1.519,247014,2017-03-13 23:18:08:110,,,,,,,,,,,,,,1,,,,,,,,,,,,,
10.686,-8.888,-3.652,2.818,-3.067,-1.217,247513,2017-03-13 23:18:08:609,,,,,,,,,,,,,,0,,,,,,,,,,,,,
8.19,-10.787,-3.177,13.56,4.092,-2.273,248013,2017-03-13 23:18:09:109,,,,,,,,,,,,,,0,,,,,,,,,,,,,
6.165,-10.056,-6.345,-7.872,-8.113,3.122,248513,2017-03-13 23:18:09:609,,,,,,,,,,,,,,0,,,,,,,,,,,,,
13.487,-6.144,-4.923,13.213,3.831,-2.529,249013,2017-03-13 23:18:10:109,,,,,,,,,,,,,,0,,,,,,,,,,,,,
-0.486,-11.231,2.528,-4.34,-8.445,4.657,249513,2017-03-13 23:18:10:609,,,,,,,,,,,,,,1,,,,,,,,,,,,,
16.783,-6.151,-3.909,5.262,0.541,-1.362,250013,2017-03-13 23:18:11:109,,,,,,,,,,,,,,0,,,,,,,,,,,,,
3.48,-11.115,-0.466,-3.438,-4.256,2.598,250513,2017-03-13 23:18:11:609,,,,,,,,,,,,,,1,,,,,,,,,,,,,
8.886,-7.563,2.158,1.928,-0.705,2.26,251012,2017-03-13 23:18:12:108,,,,,,,,,,,,,,0,,,,,,,,,,,,,
6.215,-8.39,-0.58,-1.965,-3.764,-0.044,251512,2017-03-13 23:18:12:608,,,,,,,,,,,,,,0,,,,,,,,,,,,,
8.255,-3.05,0.971,-1.021,-0.949,-1.294,252012,2017-03-13 23:18:13:108,,,,,,,,,,,,,,0,,,,,,,,,,,,,
8.739,-8.574,1.724,0.988,-2.992,0.79,252513,2017-03-13 23:18:13:609,,,,,,,,,,,,,,0,,,,,,,,,,,,,
-1.921,-12.645,-2.954,0.329,-7.67,3.121,253012,2017-03-13 23:18:14:108,,,,,,,,,,,,,,1,,,,,,,,,,,,,
9.831,-4.055,-0.577,14.627,2.081,4.696,253512,2017-03-13 23:18:14:608,,,,,,,,,,,,,,0,,,,,,,,,,,,,
3.709,-8.854,-4.765,0.411,-7.023,0.214,254013,2017-03-13 23:18:15:109,,,,,,,,,,,,,,1,,,,,,,,,,,,,
14.234,-6.089,-0.054,2.805,0.505,1.204,254512,2017-03-13 23:18:15:608,,,,,,,,,,,,,,0,,,,,,,,,,,,,
8.052,-10.479,-0.33,-2.341,-3.191,0.249,255012,2017-03-13 23:18:16:108,,,,,,,,,,,,,,0,,,,,,,,,,,,,
10.079,-8.104,-0.975,4.889,0.046,0.454,255512,2017-03-13 23:18:16:608,,,,,,,,,,,,,,0,,,,,,,,,,,,,
6.984,-8.744,-2.204,2.992,-2.077,1.392,256013,2017-03-13 23:18:17:109,,,,,,,,,,,,,,0,,,,,,,,,,,,,
11.618,-8.269,-3.819,-1.807,-5.349,-2.206,256513,2017-03-13 23:18:17:609,,,,,,,,,,,,,,0,,,,,,,,,,,,,
9.556,-11.187,-2.294,8.002,1.732,-2.114,257012,2017-03-13 23:18:18:108,,,,,,,,,,,,,,0,,,,,,,,,,,,,
7.492,-11.156,-4.381,-6.766,-6.33,-2.032,257513,2017-03-13 23:18:18:609,,,,,,,,,,,,,,0,,,,,,,,,,,,,
10.375,-9.372,-1.747,10.74,4.011,0.8,258013,2017-03-13 23:18:19:109,,,,,,,,,,,,,,0,,,,,,,,,,,,,
2.173,-10.778,0.632,-4.794,-6.718,1.904,258513,2017-03-13 23:18:19:609,,,,,,,,,,,,,,1,,,,,,,,,,,,,
14.803,-4.687,-3.015,11.02,3.005,3.418,259012,2017-03-13 23:18:20:108,,,,,,,,,,,,,,0,,,,,,,,,,,,,
1.431,-11.511,-2.637,-4.47,-8.438,2.126,259512,2017-03-13 23:18:20:608,,,,,,,,,,,,,,1,,,,,,,,,,,,,
14.131,-4.816,-3.251,9.151,0.036,2.242,260013,2017-03-13 23:18:21:109,,,,,,,,,,,,,,0,,,,,,,,,,,,,
6.37,-11.017,-3.436,3.49,-6.05,2.832,260513,2017-03-13 23:18:21:609,,,,,,,,,,,,,,0,,,,,,,,,,,,,
11.775,-10.808,-3.954,3.957,-4.5,0.981,261013,2017-03-13 23:18:22:109,,,,,,,,,,,,,,0,,,,,,,,,,,,,
8.458,-11.304,-1.795,4.888,-5.573,2.915,261512,2017-03-13 23:18:22:608,,,,,,,,,,,,,,0,,,,,,,,,,,,,
6.084,-11.422,-8.02,-7.456,-8.002,5.615,262013,2017-03-13 23:18:23:109,,,,,,,,,,,,,,0,,,,,,,,,,,,,
10.127,-11.436,-2.915,15.653,4.784,0.99,262512,2017-03-13 23:18:23:608,,,,,,,,,,,,,,0,,,,,,,,,,,,,
2.223,-12.279,-1.529,-5.75,-11.374,6.984,263013,2017-03-13 23:18:24:109,,,,,,,,,,,,,,1,,,,,,,,,,,,,
14.826,-5.598,-9.209,13.303,4.973,-8.496,263513,2017-03-13 23:18:24:609,,,,,,,,,,,,,,0,,,,,,,,,,,,,
2.005,-9.925,-2.041,-2.748,-7.027,5.393,264014,2017-03-13 23:18:25:110,,,,,,,,,,,,,,1,,,,,,,,,,,,,
13.741,-4.518,-3.753,7.633,-2.617,2.538,264513,2017-03-13 23:18:25:609,,,,,,,,,,,,,,0,,,,,,,,,,,,,
3.437,-11.545,-2.294,-0.215,-8.776,4.177,265013,2017-03-13 23:18:26:109,,,,,,,,,,,,,,1,,,,,,,,,,,,,
12.795,-12.657,-3.641,3.72,-5.556,0.412,265512,2017-03-13 23:18:26:608,,,,,,,,,,,,,,0,,,,,,,,,,,,,
9.161,-11.072,-2.446,4.162,-3.483,3.329,266013,2017-03-13 23:18:27:109,,,,,,,,,,,,,,0,,,,,,,,,,,,,
10.338,-11.993,-3.37,-6.119,-7.203,3.143,266513,2017-03-13 23:18:27:609,,,,,,,,,,,,,,0,,,,,,,,,,,,,
10.514,-10.511,-3.319,12.191,2.909,3.865,267013,2017-03-13 23:18:28:109,,,,,,,,,,,,,,0,,,,,,,,,,,,,
0.659,-11.473,-6.468,-3.945,-9.5,13.37,267513,2017-03-13 23:18:28:609,,,,,,,,,,,,,,1,,,,,,,,,,,,,
15.927,-3.598,-8.438,13.469,5.237,-2.521,268012,2017-03-13 23:18:29:108,,,,,,,,,,,,,,0,,,,,,,,,,,,,
2.115,-10.191,-1.339,-0.657,-9.419,5.463,268512,2017-03-13 23:18:29:608,,,,,,,,,,,,,,1,,,,,,,,,,,,,
12.041,-8.634,-4.611,6.443,-1.449,0.147,269013,2017-03-13 23:18:30:109,,,,,,,,,,,,,,0,,,,,,,,,,,,,
6.869,-9.593,-2.324,0.506,-5.971,4.349,269512,2017-03-13 23:18:30:608,,,,,,,,,,,,,,0,,,,,,,,,,,,,
10.657,-10.859,-4.73,-6.297,-6.76,2.056,270013,2017-03-13 23:18:31:109,,,,,,,,,,,,,,0,,,,,,,,,,,,,
9.606,-10.726,-2.151,7.034,0.695,-0.902,270513,2017-03-13 23:18:31:609,,,,,,,,,,,,,,0,,,,,,,,,,,,,
5.689,-7.985,-9.027,-4.699,-7.485,4.242,271012,2017-03-13 23:18:32:108,,,,,,,,,,,,,,0,,,,,,,,,,,,,
9.79,-6.925,-1.977,11.191,1.461,4.471,271512,2017-03-13 23:18:32:608,,,,,,,,,,,,,,0,,,,,,,,,,,,,
-0.166,-12.742,-1.132,-2.93,-11.081,4.348,272013,2017-03-13 23:18:33:109,,,,,,,,,,,,,,1,,,,,,,,,,,,,
14.178,-5.117,-5.207,10.773,1.841,1.544,272513,2017-03-13 23:18:33:609,,,,,,,,,,,,,,0,,,,,,,,,,,,,
2.782,-10.231,-1.589,3.545,-6.059,3.878,273013,2017-03-13 23:18:34:109,,,,,,,,,,,,,,1,,,,,,,,,,,,,
11.208,-9.099,-4.097,6.195,-2.468,-0.146,273513,2017-03-13 23:18:34:609,,,,,,,,,,,,,,0,,,,,,,,,,,,,
9.941,-10.559,-2.492,5.051,-4.679,2.359,274013,2017-03-13 23:18:35:109,,,,,,,,,,,,,,0,,,,,,,,,,,,,
8.464,-11.631,-3,-1.132,-5.005,-3.707,274513,2017-03-13 23:18:35:609,,,,,,,,,,,,,,0,,,,,,,,,,,,,
9.746,-11.218,-1.795,13.917,3.68,0.642,275012,2017-03-13 23:18:36:108,,,,,,,,,,,,,,0,,,,,,,,,,,,,
5.287,-7.937,-5.471,-4.252,-10.36,4.401,275513,2017-03-13 23:18:36:609,,,,,,,,,,,,,,0,,,,,,,,,,,,,
17.691,-4.194,-2.635,10.631,-0.917,2.559,276013,2017-03-13 23:18:37:109,,,,,,,,,,,,,,0,,,,,,,,,,,,,
3.83,-11.982,-3.641,-1.985,-8.252,1.791,276513,2017-03-13 23:18:37:609,,,,,,,,,,,,,,1,,,,,,,,,,,,,
13.2,-8.186,-2.29,7.234,-2.706,4.971,277013,2017-03-13 23:18:38:109,,,,,,,,,,,,,,0,,,,,,,,,,,,,
7.727,-10.672,-4.505,2.775,-3.536,1.666,277513,2017-03-13 23:18:38:609,,,,,,,,,,,,,,0,,,,,,,,,,,,,
10.73,-9.724,-5.968,0.396,-4.646,1.326,278012,2017-03-13 23:18:39:108,,,,,,,,,,,,,,0,,,,,,,,,,,,,
10.049,-11.543,-3.32,4.309,-2.449,1.196,278513,2017-03-13 23:18:39:609,,,,,,,,,,,,,,0,,,,,,,,,,,,,
6.932,-10.248,-7.875,-2.841,-5.402,-2.194,279014,2017-03-13 23:18:40:110,,,,,,,,,,,,,,0,,,,,,,,,,,,,
9.944,-8.784,-1.518,10.054,3.453,-5.05,279513,2017-03-13 23:18:40:609,,,,,,,,,,,,,,0,,,,,,,,,,,,,
1.174,-10.102,-0.224,-3.495,-7.422,3.623,280013,2017-03-13 23:18:41:109,,,,,,,,,,,,,,1,,,,,,,,,,,,,
15.223,-4.106,-6.793,6.391,2.341,-0.1,280513,2017-03-13 23:18:41:609,,,,,,,,,,,,,,0,,,,,,,,,,,,,
7.356,-9.176,-3.308,-0.236,-3.383,1.284,281012,2017-03-13 23:18:42:108,,,,,,,,,,,,,,0,,,,,,,,,,,,,
11.267,-6.686,-4.014,0.654,-1.676,1.802,281513,2017-03-13 23:18:42:609,,,,,,,,,,,,,,0,,,,,,,,,,,,,
5.348,-7.234,-3.597,2.151,-3.297,1.504,282012,2017-03-13 23:18:43:108,,,,,,,,,,,,,,0,,,,,,,,,,,,,
7.244,-8.958,-2.997,-5.297,-3.422,-6.217,282512,2017-03-13 23:18:43:608,,,,,,,,,,,,,,0,,,,,,,,,,,,,
8.038,-8.917,-1.709,3.871,0.776,2.129,283013,2017-03-13 23:18:44:109,,,,,,,,,,,,,,0,,,,,,,,,,,,,
3.089,-7.501,-2.358,-2.596,-8.181,2.179,283512,2017-03-13 23:18:44:608,,,,,,,,,,,,,,1,,,,,,,,,,,,,
13.905,-6.649,-3.453,6.525,1.069,-0.499,284013,2017-03-13 23:18:45:109,,,,,,,,,,,,,,0,,,,,,,,,,,,,
6.537,-10.037,-4.052,-3.693,-4.698,-0.006,284514,2017-03-13 23:18:45:610,,,,,,,,,,,,,,0,,,,,,,,,,,,,
11.578,-7.696,-4.01,3.499,0.01,0.99,285013,2017-03-13 23:18:46:109,,,,,,,,,,,,,,0,,,,,,,,,,,,,
4.862,-8.285,-3.122,2.533,-1.635,0.691,285513,2017-03-13 23:18:46:609,,,,,,,,,,,,,,1,,,,,,,,,,,,,
9.26,-7.988,-2.227,-0.956,-2.123,-2.243,286012,2017-03-13 23:18:47:108,,,,,,,,,,,,,,0,,,,,,,,,,,,,
7.52,-8.921,-3.506,5.908,0.936,3.4,286512,2017-03-13 23:18:47:608,,,,,,,,,,,,,,0,,,,,,,,,,,,,
3.973,-8.929,-8.162,-2.101,-6.863,3.512,287014,2017-03-13 23:18:48:110,,,,,,,,,,,,,,1,,,,,,,,,,,,,
13.736,-5.57,-3.098,7.825,0.657,0.018,287512,2017-03-13 23:18:48:608,,,,,,,,,,,,,,0,,,,,,,,,,,,,
4.062,-10.664,-1.819,-2.42,-5.532,1.895,288013,2017-03-13 23:18:49:109,,,,,,,,,,,,,,1,,,,,,,,,,,,,
9.192,-9.094,-2.259,3.308,1.228,0.058,288512,2017-03-13 23:18:49:608,,,,,,,,,,,,,,0,,,,,,,,,,,,,
8.708,-8.22,-2.17,0.752,-1.817,0.511,289012,2017-03-13 23:18:50:108,,,,,,,,,,,,,,0,,,,,,,,,,,,,
7.091,-8.906,-2.642,-3.261,-2.969,-4.692,289513,2017-03-13 23:18:50:609,,,,,,,,,,,,,,0,,,,,,,,,,,,,
8.202,-10.465,-3.338,6.574,0.973,4.55,290013,2017-03-13 23:18:51:109,,,,,,,,,,,,,,0,,,,,,,,,,,,,
4.076,-9.421,-1.79,-6.885,-7.482,2.615,290513,2017-03-13 23:18:51:609,,,,,,,,,,,,,,1,,,,,,,,,,,,,
12.192,-5.449,-2.321,12.694,1.136,7.229,291012,2017-03-13 23:18:52:108,,,,,,,,,,,,,,0,,,,,,,,,,,,,
4.603,-10.182,-2.167,-1.315,-5.715,3.054,291512,2017-03-13 23:18:52:608,,,,,,,,,,,,,,1,,,,,,,,,,,,,
10.55,-11.232,-2.66,4.386,-4.248,2.513,292013,2017-03-13 23:18:53:109,,,,,,,,,,,,,,0,,,,,,,,,,,,,
7.731,-11.731,-2.982,3.742,-5.765,1.825,292512,2017-03-13 23:18:53:608,,,,,,,,,,,,,,0,,,,,,,,,,,,,
6.696,-11.762,-2.284,-0.65,-5.631,0.272,293013,2017-03-13 23:18:54:109,,,,,,,,,,,,,,0,,,,,,,,,,,,,
11.75,-8.528,-3.141,14.221,2.43,6.994,293513,2017-03-13 23:18:54:609,,,,,,,,,,,,,,0,,,,,,,,,,,,,
1.748,-10.635,-3.97,-3.173,-10.039,4.322,294013,2017-03-13 23:18:55:109,,,,,,,,,,,,,,1,,,,,,,,,,,,,
15.484,-4.577,-4.697,13.32,1.543,3.19,294513,2017-03-13 23:18:55:609,,,,,,,,,,,,,,0,,,,,,,,,,,,,
4.696,-11.869,1.142,1.881,-5.492,3.753,295012,2017-03-13 23:18:56:108,,,,,,,,,,,,,,1,,,,,,,,,,,,,
10.131,-10.392,-6.153,4.658,-2.24,-0.352,295513,2017-03-13 23:18:56:609,,,,,,,,,,,,,,0,,,,,,,,,,,,,
6.365,-11.016,-2.249,2.359,-7.126,3.831,296012,2017-03-13 23:18:57:108,,,,,,,,,,,,,,0,,,,,,,,,,,,,
8.662,-9.716,-3.987,3.523,-3.825,1.624,296513,2017-03-13 23:18:57:609,,,,,,,,,,,,,,0,,,,,,,,,,,,,
10.542,-10.958,-3.201,2.942,-3.105,1.916,297012,2017-03-13 23:18:58:108,,,,,,,,,,,,,,0,,,,,,,,,,,,,
6.211,-9.14,-9.515,-8.653,-9.27,2.443,297512,2017-03-13 23:18:58:608,,,,,,,,,,,,,,0,,,,,,,,,,,,,
18.211,-3.849,-3.491,12.955,1.457,2.961,298013,2017-03-13 23:18:59:109,,,,,,,,,,,,,,0,,,,,,,,,,,,,
-1.682,-10.87,1.501,-2.179,-10.022,3.899,298513,2017-03-13 23:18:59:609,,,,,,,,,,,,,,1,,,,,,,,,,,,,
12.054,-8.142,-5.142,8.338,-0.785,0.446,299013,2017-03-13 23:19:00:109,,,,,,,,,,,,,,0,,,,,,,,,,,,,
6.023,-9.418,-2.797,3.079,-5.76,2.426,299512,2017-03-13 23:19:00:608,,,,,,,,,,,,,,0,,,,,,,,,,,,,
10.353,-11.206,-3.467,0.14,-3.973,-1.587,300012,2017-03-13 23:19:01:108,,,,,,,,,,,,,,0,,,,,,,,,,,,,
10.977,-11.22,-2.666,9.117,0.148,2.894,300513,2017-03-13 23:19:01:609,,,,,,,,,,,,,,0,,,,,,,,,,,,,
2.945,-10.09,-10.552,-5.94,-6.619,1.465,301013,2017-03-13 23:19:02:109,,,,,,,,,,,,,,1,,,,,,,,,,,,,
15.799,-5.278,-2.916,12.547,-2.125,3.496,301513,2017-03-13 23:19:02:609,,,,,,,,,,,,,,0,,,,,,,,,,,,,
2.422,-12.596,-0.361,1.122,-9.125,4.287,302013,2017-03-13 23:19:03:109,,,,,,,,,,,,,,1,,,,,,,,,,,,,
8.091,-10.578,-4.245,6.06,-2.861,1.701,302512,2017-03-13 23:19:03:608,,,,,,,,,,,,,,0,,,,,,,,,,,,,
6.993,-12.406,-2.569,3.852,-5.91,1.423,303013,2017-03-13 23:19:04:109,,,,,,,,,,,,,,0,,,,,,,,,,,,,
8.172,-14.455,-2.233,-0.585,-5.535,0.419,303513,2017-03-13 23:19:04:609,,,,,,,,,,,,,,0,,,,,,,,,,,,,
11.25,-14.459,-4.939,11.564,2.153,4.641,304012,2017-03-13 23:19:05:108,,,,,,,,,,,,,,0,,,,,,,,,,,,,
6.267,-11.403,-3.898,-6.713,-9.04,4.066,304513,2017-03-13 23:19:05:609,,,,,,,,,,,,,,0,,,,,,,,,,,,,
16.789,-5.888,-2.351,14.836,1.426,4.999,305013,2017-03-13 23:19:06:109,,,,,,,,,,,,,,0,,,,,,,,,,,,,
3.776,-9.475,-1.311,-2.903,-11.701,1.257,305512,2017-03-13 23:19:06:608,,,,,,,,,,,,,,1,,,,,,,,,,,,,
13.563,-9.367,0.778,8.961,-8.311,9.053,306012,2017-03-13 23:19:07:108,,,,,,,,,,,,,,0,,,,,,,,,,,,,
6.4,-15.03,-2.887,0.267,-14.586,-0.525,306513,2017-03-13 23:19:07:609,,,,,,,,,,,,,,0,,,,,,,,,,,,,
7.375,-14.989,-2.633,-1.16,-10.466,0.302,307012,2017-03-13 23:19:08:108,,,,,,,,,,,,,,0,,,,,,,,,,,,,
11.451,-12.89,-1.374,10.213,-0.976,4.268,307512,2017-03-13 23:19:08:608,,,,,,,,,,,,,,0,,,,,,,,,,,,,
2.336,-8.191,3.277,-3.326,-13.031,0.423,308013,2017-03-13 23:19:09:109,,,,,,,,,,,,,,1,,,,,,,,,,,,,
13.077,-9.574,-1.131,10.101,-2.588,3.206,308512,2017-03-13 23:19:09:608,,,,,,,,,,,,,,0,,,,,,,,,,,,,
6.978,-11.874,-3.266,-1.116,-5.417,2.663,309013,2017-03-13 23:19:10:109,,,,,,,,,,,,,,0,,,,,,,,,,,,,
9.053,-10.63,-0.576,0.24,-5.508,1.266,309513,2017-03-13 23:19:10:609,,,,,,,,,,,,,,0,,,,,,,,,,,,,
5.431,-10.167,-3.229,0.81,-4.616,2.314,310012,2017-03-13 23:19:11:108,,,,,,,,,,,,,,0,,,,,,,,,,,,,
8.417,-10.319,-3.888,-0.023,-5.034,-1.667,310512,2017-03-13 23:19:11:608,,,,,,,,,,,,,,0,,,,,,,,,,,,,
8.435,-12.471,-2.587,4.159,-3.769,2.534,311012,2017-03-13 23:19:12:108,,,,,,,,,,,,,,0,,,,,,,,,,,,,
5.413,-11.555,-4.963,-5.62,-11.285,2.971,311513,2017-03-13 23:19:12:609,,,,,,,,,,,,,,0,,,,,,,,,,,,,
14.387,-6.987,-4.944,12.759,2.908,-0.131,312012,2017-03-13 23:19:13:108,,,,,,,,,,,,,,0,,,,,,,,,,,,,
5.218,-14.13,5.287,-11.479,-10.573,3.586,312514,2017-03-13 23:19:13:610,,,,,,,,,,,,,,0,,,,,,,,,,,,,
13.96,-6.37,-4.341,9.164,-0.196,3.26,313013,2017-03-13 23:19:14:109,,,,,,,,,,,,,,0,,,,,,,,,,,,,
4.267,-9.587,-2.785,1.272,-8.231,4.729,313513,2017-03-13 23:19:14:609,,,,,,,,,,,,,,1,,,,,,,,,,,,,
9.516,-9.244,-4.155,3.577,-3.498,-0.519,314013,2017-03-13 23:19:15:109,,,,,,,,,,,,,,0,,,,,,,,,,,,,
7.985,-12.329,-2.279,1.12,-6.462,1.498,314512,2017-03-13 23:19:15:608,,,,,,,,,,,,,,0,,,,,,,,,,,,,
7.471,-11.093,-4.792,-1.613,-6.523,-0.463,315013,2017-03-13 23:19:16:109,,,,,,,,,,,,,,0,,,,,,,,,,,,,
8.288,-11.302,-4.091,13.822,2.096,1.137,315513,2017-03-13 23:19:16:609,,,,,,,,,,,,,,0,,,,,,,,,,,,,
5.31,-8.612,-2.437,-3.893,-9.248,3.418,316013,2017-03-13 23:19:17:109,,,,,,,,,,,,,,0,,,,,,,,,,,,,
14.533,-3.787,-5.36,5.431,0.769,0.306,316512,2017-03-13 23:19:17:608,,,,,,,,,,,,,,0,,,,,,,,,,,,,
4.581,-11.19,-1.877,-0.302,-5.998,4.671,317017,2017-03-13 23:19:18:113,,,,,,,,,,,,,,1,,,,,,,,,,,,,
7.155,-11.361,-4.178,1.195,-2.455,1.188,317513,2017-03-13 23:19:18:609,,,,,,,,,,,,,,0,,,,,,,,,,,,,
5.743,-9.623,-2.023,1.835,-3.311,2.144,318012,2017-03-13 23:19:19:108,,,,,,,,,,,,,,0,,,,,,,,,,,,,
7.943,-10.311,-1.518,-3.827,-3.473,-6.796,318513,2017-03-13 23:19:19:609,,,,,,,,,,,,,,0,,,,,,,,,,,,,
8.82,-9.952,-2.649,9.676,2.167,-1.177,319013,2017-03-13 23:19:20:109,,,,,,,,,,,,,,0,,,,,,,,,,,,,
1.579,-9.563,0.63,-0.907,-8.874,4.128,319512,2017-03-13 23:19:20:608,,,,,,,,,,,,,,1,,,,,,,,,,,,,
16.404,-5.053,-8.525,10.205,0.119,-2.017,320012,2017-03-13 23:19:21:108,,,,,,,,,,,,,,0,,,,,,,,,,,,,
3.85,-11.123,-3.128,-2.075,-6.541,3.486,320513,2017-03-13 23:19:21:609,,,,,,,,,,,,,,1,,,,,,,,,,,,,
10.373,-8.454,-4.834,4.483,-0.002,0.336,321013,2017-03-13 23:19:22:109,,,,,,,,,,,,,,0,,,,,,,,,,,,,
7.443,-10.038,-1.932,2.298,-2.838,0.693,321513,2017-03-13 23:19:22:609,,,,,,,,,,,,,,0,,,,,,,,,,,,,
9.095,-10.888,-5.288,-3.822,-5.002,-2.063,322013,2017-03-13 23:19:23:109,,,,,,,,,,,,,,0,,,,,,,,,,,,,
8.491,-11.083,-3.266,9.024,1.296,0.205,322512,2017-03-13 23:19:23:608,,,,,,,,,,,,,,0,,,,,,,,,,,,,
3.764,-9.08,-4.056,-6.075,-7.676,4.743,323014,2017-03-13 23:19:24:110,,,,,,,,,,,,,,1,,,,,,,,,,,,,
12.768,-6.079,-1.438,10.851,1.928,-3.169,323513,2017-03-13 23:19:24:609,,,,,,,,,,,,,,0,,,,,,,,,,,,,
0.444,-9.819,-3.893,-3.59,-6.358,2.466,324012,2017-03-13 23:19:25:108,,,,,,,,,,,,,,1,,,,,,,,,,,,,
11.307,-12.121,-1.018,3.839,-6.831,2.961,324513,2017-03-13 23:19:25:609,,,,,,,,,,,,,,0,,,,,,,,,,,,,
5.266,-11.311,-7.894,-0.431,-6.718,-3.338,325012,2017-03-13 23:19:26:108,,,,,,,,,,,,,,0,,,,,,,,,,,,,
7.136,-11.438,-3.679,-4.657,-4.468,-2.369,325513,2017-03-13 23:19:26:609,,,,,,,,,,,,,,0,,,,,,,,,,,,,
8.73,-12.384,-2.71,13.427,2.034,3.889,326013,2017-03-13 23:19:27:109,,,,,,,,,,,,,,0,,,,,,,,,,,,,
3.696,-9.501,-7.727,-6.206,-7.735,5.619,326512,2017-03-13 23:19:27:608,,,,,,,,,,,,,,1,,,,,,,,,,,,,
16.368,-2.549,-7.776,8.716,4.001,-0.109,327012,2017-03-13 23:19:28:108,,,,,,,,,,,,,,0,,,,,,,,,,,,,
4.976,-9.637,-4.487,0.337,-4.236,3.517,327513,2017-03-13 23:19:28:609,,,,,,,,,,,,,,1,,,,,,,,,,,,,
10.832,-8.717,-1.052,5.511,-1.273,0.872,328013,2017-03-13 23:19:29:109,,,,,,,,,,,,,,0,,,,,,,,,,,,,
5.701,-10.065,0.256,0.987,-4.708,2.078,328513,2017-03-13 23:19:29:609,,,,,,,,,,,,,,0,,,,,,,,,,,,,
5.641,-9.762,-1.313,-2.391,-3.868,0.69,329013,2017-03-13 23:19:30:109,,,,,,,,,,,,,,0,,,,,,,,,,,,,
6.486,-9.184,-0.33,12.083,2.718,-1.115,329513,2017-03-13 23:19:30:609,,,,,,,,,,,,,,0,,,,,,,,,,,,,
3.923,-7.477,-1.774,-5.695,-8.001,-1.429,330013,2017-03-13 23:19:31:109,,,,,,,,,,,,,,1,,,,,,,,,,,,,
14.191,-9.655,-1.451,7.681,-1.014,0.201,330513,2017-03-13 23:19:31:609,,,,,,,,,,,,,,0,,,,,,,,,,,,,
6.821,-10.69,-1.618,-0.398,-1.759,0.753,331012,2017-03-13 23:19:32:108,,,,,,,,,,,,,,0,,,,,,,,,,,,,
10.025,-10.435,-3.547,-3.565,-2.826,0.329,331512,2017-03-13 23:19:32:608,,,,,,,,,,,,,,0,,,,,,,,,,,,,
6.3,-9.186,-1.468,3.906,-0.423,0.19,332012,2017-03-13 23:19:33:108,,,,,,,,,,,,,,0,,,,,,,,,,,,,
4.579,-9.576,-2.279,-5.404,-3.142,-4.418,332513,2017-03-13 23:19:33:609,,,,,,,,,,,,,,1,,,,,,,,,,,,,
8.727,-8.431,-0.64,5.515,2.513,1.883,333013,2017-03-13 23:19:34:109,,,,,,,,,,,,,,0,,,,,,,,,,,,,
3.818,-7.88,-3.34,-6.362,-8.411,3.197,333512,2017-03-13 23:19:34:608,,,,,,,,,,,,,,1,,,,,,,,,,,,,
18.241,-6.083,-7.034,9.02,1.16,-1.653,334012,2017-03-13 23:19:35:108,,,,,,,,,,,,,,0,,,,,,,,,,,,,
0.227,-9.753,-1.024,-1.218,-7.296,-1.344,334512,2017-03-13 23:19:35:608,,,,,,,,,,,,,,1,,,,,,,,,,,,,
10.417,-8.819,-4.75,4.751,0.4,-0.157,335013,2017-03-13 23:19:36:109,,,,,,,,,,,,,,0,,,,,,,,,,,,,
5.317,-8.743,-4.704,0.365,-2.418,0.917,335513,2017-03-13 23:19:36:609,,,,,,,,,,,,,,0,,,,,,,,,,,,,
8.838,-8.861,-1.821,-1.136,-2.284,-3.137,336012,2017-03-13 23:19:37:108,,,,,,,,,,,,,,0,,,,,,,,,,,,,
7.311,-10.067,-2.422,4.66,0.661,-0.892,336513,2017-03-13 23:19:37:609,,,,,,,,,,,,,,0,,,,,,,,,,,,,
4.244,-8.738,-2.983,-4.089,-2.149,2.766,337012,2017-03-13 23:19:38:108,,,,,,,,,,,,,,1,,,,,,,,,,,,,
12.182,-6.511,0.866,3.837,0.327,0.132,337512,2017-03-13 23:19:38:608,,,,,,,,,,,,,,0,,,,,,,,,,,,,
8.139,-12.499,-0.914,-1.877,-2.057,-0.02,338013,2017-03-13 23:19:39:109,,,,,,,,,,,,,,0,,,,,,,,,,,,,
7.764,-9.506,-4.393,2.184,-0.345,1.009,338512,2017-03-13 23:19:39:608,,,,,,,,,,,,,,0,,,,,,,,,,,,,
5.268,-7.291,-2.322,-0.876,-0.507,1.981,339012,2017-03-13 23:19:40:108,,,,,,,,,,,,,,0,,,,,,,,,,,,,
5.459,-8.507,-1.545,-5.408,-2.655,-2.402,339513,2017-03-13 23:19:40:609,,,,,,,,,,,,,,0,,,,,,,,,,,,,
9.006,-9.519,-1.314,9.571,2.899,-3.769,340012,2017-03-13 23:19:41:108,,,,,,,,,,,,,,0,,,,,,,,,,,,,
1.357,-10.13,-2.711,-3.781,-7.46,2.892,340512,2017-03-13 23:19:41:608,,,,,,,,,,,,,,1,,,,,,,,,,,,,
10.048,-6.601,-5.417,7.022,0.985,-2.684,341013,2017-03-13 23:19:42:109,,,,,,,,,,,,,,0,,,,,,,,,,,,,
5.289,-9.953,-3.229,-0.536,-1.18,3.608,341512,2017-03-13 23:19:42:608,,,,,,,,,,,,,,0,,,,,,,,,,,,,
7.907,-7.387,-3.654,1.271,-0.29,0.04,342013,2017-03-13 23:19:43:109,,,,,,,,,,,,,,0,,,,,,,,,,,,,
5.388,-8.427,-1.262,-0.374,-2.935,1.653,342513,2017-03-13 23:19:43:609,,,,,,,,,,,,,,0,,,,,,,,,,,,,
4.895,-8.873,-4.92,-4.594,-2.484,-4.134,343013,2017-03-13 23:19:44:109,,,,,,,,,,,,,,1,,,,,,,,,,,,,
12.159,-8.242,2.234,7.229,-0.355,-1.502,343512,2017-03-13 23:19:44:608,,,,,,,,,,,,,,0,,,,,,,,,,,,,
3.256,-9.39,-4.957,-3.083,-8.96,4.478,344012,2017-03-13 23:19:45:108,,,,,,,,,,,,,,1,,,,,,,,,,,,,
14.97,-8.112,-5.079,3.683,0.624,-0.311,344513,2017-03-13 23:19:45:609,,,,,,,,,,,,,,0,,,,,,,,,,,,,
6.921,-10.127,-2.551,-2.975,-3.218,2.258,345012,2017-03-13 23:19:46:108,,,,,,,,,,,,,,0,,,,,,,,,,,,,
8.915,-8.984,-2.809,3.362,0.614,-3.405,345512,2017-03-13 23:19:46:608,,,,,,,,,,,,,,0,,,,,,,,,,,,,
8.326,-9.627,-2.314,1.433,0.544,1.73,346013,2017-03-13 23:19:47:109,,,,,,,,,,,,,,0,,,,,,,,,,,,,
7.155,-8.562,-2.142,-5.907,-4.425,2.519,346513,2017-03-13 23:19:47:609,,,,,,,,,,,,,,0,,,,,,,,,,,,,
8.319,-8.591,-2.387,12.598,4.35,-2.124,347013,2017-03-13 23:19:48:109,,,,,,,,,,,,,,0,,,,,,,,,,,,,
0.745,-8.801,-0.889,-8.213,-8.984,3.092,347513,2017-03-13 23:19:48:609,,,,,,,,,,,,,,1,,,,,,,,,,,,,
14.363,-7.909,-5.78,10.31,1.568,-3.01,348013,2017-03-13 23:19:49:109,,,,,,,,,,,,,,0,,,,,,,,,,,,,
6.677,-9.639,-4.295,-4.091,-3.081,2.479,348512,2017-03-13 23:19:49:608,,,,,,,,,,,,,,0,,,,,,,,,,,,,
6.7,-8.387,-3.313,3.891,0.781,0.671,349013,2017-03-13 23:19:50:109,,,,,,,,,,,,,,0,,,,,,,,,,,,,
5.653,-7.887,-3.392,-1.464,-2.468,1.42,349512,2017-03-13 23:19:50:608,,,,,,,,,,,,,,0,,,,,,,,,,,,,
6.299,-6.678,-6.792,0.695,-1.002,-1.918,350013,2017-03-13 23:19:51:109,,,,,,,,,,,,,,0,,,,,,,,,,,,,
6.42,-8.638,-3.652,7.438,2.228,-5.307,350513,2017-03-13 23:19:51:609,,,,,,,,,,,,,,0,,,,,,,,,,,,,
4.622,-9.532,-7.234,-4.533,-7.377,8.033,351012,2017-03-13 23:19:52:108,,,,,,,,,,,,,,1,,,,,,,,,,,,,
10.67,-7.867,-5.689,9.239,2.45,-9.233,351512,2017-03-13 23:19:52:608,,,,,,,,,,,,,,0,,,,,,,,,,,,,
0.86,-13.125,2.244,-5.399,-7.877,5.703,352012,2017-03-13 23:19:53:108,,,,,,,,,,,,,,1,,,,,,,,,,,,,
8.234,-7.276,-6.899,3.341,0.879,-2.736,352512,2017-03-13 23:19:53:608,,,,,,,,,,,,,,0,,,,,,,,,,,,,
4.403,-9.905,-3.09,-5.151,-4.687,3.059,353012,2017-03-13 23:19:54:108,,,,,,,,,,,,,,1,,,,,,,,,,,,,
9.076,-9.442,-1.764,3.486,-0.826,0.849,353513,2017-03-13 23:19:54:609,,,,,,,,,,,,,,0,,,,,,,,,,,,,
5.723,-8.97,-3.672,0.794,-3.733,1.556,354013,2017-03-13 23:19:55:109,,,,,,,,,,,,,,0,,,,,,,,,,,,,
6.444,-8.536,-3.453,-3.361,-5.075,1.679,354513,2017-03-13 23:19:55:609,,,,,,,,,,,,,,0,,,,,,,,,,,,,
9.211,-8.118,-2.411,11.457,3.961,-2.374,355012,2017-03-13 23:19:56:108,,,,,,,,,,,,,,0,,,,,,,,,,,,,
4.826,-9.459,-7.036,-6.366,-7.921,5.436,355513,2017-03-13 23:19:56:609,,,,,,,,,,,,,,1,,,,,,,,,,,,,
10.243,-7.648,-4.219,11.537,2.748,-5.966,356013,2017-03-13 23:19:57:109,,,,,,,,,,,,,,0,,,,,,,,,,,,,
4.264,-13.283,1.436,-4.125,-3.347,2.857,356513,2017-03-13 23:19:57:609,,,,,,,,,,,,,,1,,,,,,,,,,,,,
7.424,-10.228,-3.856,2.406,1.07,-0.23,357012,2017-03-13 23:19:58:108,,,,,,,,,,,,,,0,,,,,,,,,,,,,
4.298,-7.551,-2.807,-2.469,-2.272,1.579,357513,2017-03-13 23:19:58:609,,,,,,,,,,,,,,1,,,,,,,,,,,,,
6.123,-7.894,-0.937,-0.064,0.135,2.609,358012,2017-03-13 23:19:59:108,,,,,,,,,,,,,,0,,,,,,,,,,,,,
8.071,-10.02,-1.971,8.459,3.985,-4.81,358513,2017-03-13 23:19:59:609,,,,,,,,,,,,,,0,,,,,,,,,,,,,
4.505,-7.858,-6.524,-3.585,-7.963,4.403,359012,2017-03-13 23:20:00:108,,,,,,,,,,,,,,1,,,,,,,,,,,,,
17.081,-3.889,-4.846,6.981,0.141,-1.628,359513,2017-03-13 23:20:00:609,,,,,,,,,,,,,,0,,,,,,,,,,,,,
5.457,-13.361,4.031,0.235,-6.039,5.038,360012,2017-03-13 23:20:01:108,,,,,,,,,,,,,,0,,,,,,,,,,,,,
8.588,-10.05,-3.208,2.265,0.967,-1.022,360513,2017-03-13 23:20:01:609,,,,,,,,,,,,,,0,,,,,,,,,,,,,
3.649,-8.684,-1.93,-1.638,-3.382,2.637,361013,2017-03-13 23:20:02:109,,,,,,,,,,,,,,1,,,,,,,,,,,,,
7.247,-8.847,-3.918,-0.431,-0.459,0.838,361514,2017-03-13 23:20:02:610,,,,,,,,,,,,,,0,,,,,,,,,,,,,
6.438,-9.201,-1.922,1.455,-1.562,0.768,362013,2017-03-13 23:20:03:109,,,,,,,,,,,,,,0,,,,,,,,,,,,,
2.368,-8.24,-6.761,-2.829,-6.862,7.182,362512,2017-03-13 23:20:03:608,,,,,,,,,,,,,,1,,,,,,,,,,,,,
13.616,-5.679,-3.738,7.413,-0.23,-2.013,363013,2017-03-13 23:20:04:109,,,,,,,,,,,,,,0,,,,,,,,,,,,,
4.276,-14.387,3.295,-0.321,-6.636,7.008,363513,2017-03-13 23:20:04:609,,,,,,,,,,,,,,1,,,,,,,,,,,,,
11.322,-8.224,-4.403,6.368,-0.192,-1.902,364013,2017-03-13 23:20:05:109,,,,,,,,,,,,,,0,,,,,,,,,,,,,
5.324,-10.68,-2.824,-3.091,-3.264,3.288,364513,2017-03-13 23:20:05:609,,,,,,,,,,,,,,0,,,,,,,,,,,,,
7.7,-8.613,-2.302,0.669,0.661,-1.883,365012,2017-03-13 23:20:06:108,,,,,,,,,,,,,,0,,,,,,,,,,,,,
5.871,-8.857,-0.576,0.289,-1.686,2.035,365513,2017-03-13 23:20:06:609,,,,,,,,,,,,,,0,,,,,,,,,,,,,
5.537,-9.464,-3.601,0.027,-1.318,-2.522,366013,2017-03-13 23:20:07:109,,,,,,,,,,,,,,0,,,,,,,,,,,,,
12.403,-7.645,-3.604,8.78,0.519,0.472,366513,2017-03-13 23:20:07:609,,,,,,,,,,,,,,0,,,,,,,,,,,,,
3.318,-11.011,-1.003,-4.058,-6.216,3.178,367013,2017-03-13 23:20:08:109,,,,,,,,,,,,,,1,,,,,,,,,,,,,
10.688,-7.638,-2.218,7.619,0.408,1.069,367512,2017-03-13 23:20:08:608,,,,,,,,,,,,,,0,,,,,,,,,,,,,
4.68,-10.063,-3.488,-4.307,-5.441,3.164,368012,2017-03-13 23:20:09:108,,,,,,,,,,,,,,1,,,,,,,,,,,,,
7.638,-9.66,-4.603,-2.112,-4.334,-0.603,368513,2017-03-13 23:20:09:609,,,,,,,,,,,,,,0,,,,,,,,,,,,,
7.919,-11.694,-1.451,5.164,0.902,0.202,369013,2017-03-13 23:20:10:109,,,,,,,,,,,,,,0,,,,,,,,,,,,,
4.719,-9.853,-4.301,-9.782,-6.444,4.238,369512,2017-03-13 23:20:10:608,,,,,,,,,,,,,,1,,,,,,,,,,,,,
14.089,-5.434,-5.228,13.166,2.682,0.442,370013,2017-03-13 23:20:11:109,,,,,,,,,,,,,,0,,,,,,,,,,,,,
3.277,-9.204,-2.087,-4.107,-7.191,4.057,370513,2017-03-13 23:20:11:609,,,,,,,,,,,,,,1,,,,,,,,,,,,,
10.953,-8.963,-2.339,5.521,-1.377,1.393,371013,2017-03-13 23:20:12:109,,,,,,,,,,,,,,0,,,,,,,,,,,,,
5.061,-10.782,-0.763,0.7,-6.365,3.951,371513,2017-03-13 23:20:12:609,,,,,,,,,,,,,,0,,,,,,,,,,,,,
6.722,-9.43,-3.515,-3.674,-3.754,-2.509,372013,2017-03-13 23:20:13:109,,,,,,,,,,,,,,0,,,,,,,,,,,,,
7.881,-9.739,-2.016,4.486,0.748,2.727,372513,2017-03-13 23:20:13:609,,,,,,,,,,,,,,0,,,,,,,,,,,,,
5.519,-6.981,-3.704,-5.86,-3.736,-2.334,373012,2017-03-13 23:20:14:108,,,,,,,,,,,,,,0,,,,,,,,,,,,,
10.753,-5.117,0.452,3.721,-3.019,2.096,373513,2017-03-13 23:20:14:609,,,,,,,,,,,,,,0,,,,,,,,,,,,,
6.627,-10.499,4.673,2.232,-6.759,2.246,374012,2017-03-13 23:20:15:108,,,,,,,,,,,,,,0,,,,,,,,,,,,,
-0.057,1.463,6.752,-3.117,-1.086,-3.192,374512,2017-03-13 23:20:15:608,,,,,,,,,,,,,,1,,,,,,,,,,,,,
2.45,2.322,8.547,-2.05,1.517,-0.553,375012,2017-03-13 23:20:16:108,,,,,,,,,,,,,,1,,,,,,,,,,,,,
1.223,2.83,6.994,-1.105,-0.209,-2.247,375513,2017-03-13 23:20:16:609,,,,,,,,,,,,,,1,,,,,,,,,,,,,
-0.103,2.978,8.704,-0.942,1.512,-0.863,376013,2017-03-13 23:20:17:109,,,,,,,,,,,,,,1,,,,,,,,,,,,,
0.468,4.306,7.774,-0.311,1.084,-1.068,376512,2017-03-13 23:20:17:608,,,,,,,,,,,,,,1,,,,,,,,,,,,,
-1.04,4.122,7.31,-1.291,-0.563,-1.336,377012,2017-03-13 23:20:18:108,,,,,,,,,,,,,,1,,,,,,,,,,,,,
